File: Experimento 4/Resultados Experimento 4-20210423/arquivos csv/açoTemp.csv
index;Load(kN);Defor(mm);Stroke(mm);Time(s)
0;0;0;0;0
2;0;0;0;0.115
4;0;0.005;0.005;0.235
6;0;0.0137;0.014;0.355
8;0;0.0237;0.024;0.475
10;0;0.0337;0.034;0.595
12;0.04;0.0437;0.044;0.715
14;0.14;0.0537;0.054;0.835
16;0.16;0.0637;0.064;0.955
18;0.16;0.0737;0.074;1.075
20;0.16;0.0837;0.084;1.195
22;0.16;0.0938;0.094;1.315
24;0.16;0.1037;0.104;1.435
26;0.16;0.1137;0.114;1.555
28;0.16;0.1237;0.124;1.675
30;0.18;0.1337;0.134;1.795
32;0.3;0.1437;0.144;1.915
34;0.42;0.1538;0.154;2.035
36;0.58;0.1637;0.164;2.155
38;0.7;0.1737;0.174;2.275
40;0.82;0.1837;0.184;2.395
42;0.88;0.1937;0.194;2.515
44;0.94;0.2037;0.204;2.635
46;1;0.2137;0.214;2.755
48;1.04;0.2237;0.224;2.875
50;1.06;0.2338;0.234;2.995
52;1.08;0.2437;0.244;3.115
54;1.1;0.2537;0.254;3.235
56;1.12;0.2637;0.264;3.355
58;1.12;0.2738;0.274;3.475
60;1.14;0.2837;0.284;3.595
62;1.16;0.2937;0.294;3.715
64;1.18;0.3037;0.304;3.835
66;1.18;0.3137;0.314;3.955
68;1.2;0.3237;0.324;4.075
70;1.22;0.3337;0.334;4.195
72;1.22;0.3438;0.344;4.315
74;1.24;0.3537;0.354;4.435
76;1.26;0.3625;0.362;4.555
78;1.26;0.3725;0.373;4.675
80;1.28;0.3825;0.382;4.795
82;1.28;0.3925;0.392;4.915
84;1.3;0.4025;0.403;5.035
86;1.32;0.4137;0.414;5.155
88;1.32;0.4237;0.424;5.275
90;1.34;0.4338;0.434;5.395
92;1.36;0.4437;0.444;5.515
94;1.36;0.4525;0.452;5.635
96;1.38;0.4625;0.462;5.755
98;1.38;0.4725;0.472;5.875
100;1.4;0.4825;0.482;5.995
102;1.42;0.4925;0.492;6.115
104;1.42;0.5025;0.502;6.235
106;1.44;0.5125;0.512;6.355
108;1.44;0.5225;0.522;6.475
110;1.46;0.5325;0.532;6.595
112;1.46;0.5425;0.542;6.715
114;1.46;0.5525;0.553;6.835
116;1.48;0.5625;0.562;6.955
118;1.48;0.5725;0.572;7.075
120;1.5;0.5825;0.582;7.195
122;1.5;0.5925;0.592;7.315
124;1.52;0.6025;0.602;7.435
126;1.52;0.6125;0.613;7.555
128;1.54;0.6225;0.623;7.675
130;1.54;0.6325;0.632;7.795
132;1.56;0.6425;0.642;7.915
134;1.56;0.6525;0.652;8.035
136;1.58;0.6625;0.662;8.155
138;1.58;0.6725;0.673;8.275
140;1.58;0.6825;0.683;8.395
142;1.6;0.6925;0.692;8.515
144;1.6;0.7025;0.702;8.635
146;1.62;0.7125;0.712;8.755
148;1.62;0.7225;0.722;8.875
150;1.64;0.7325;0.732;8.995
152;1.64;0.7425;0.743;9.115
154;1.64;0.7525;0.752;9.235
156;1.66;0.7612;0.761;9.355
158;1.66;0.7713;0.771;9.475
160;1.66;0.7812;0.781;9.595
162;1.68;0.7912;0.791;9.715
164;1.68;0.8012;0.801;9.835
166;1.7;0.8112;0.811;9.955
168;1.72;0.8212;0.821;10.075
170;1.72;0.8312;0.831;10.195
172;1.72;0.8413;0.841;10.315
174;1.74;0.8512;0.851;10.435
176;1.74;0.8612;0.861;10.555
178;1.76;0.8725;0.873;10.675
180;1.78;0.8825;0.882;10.795
182;1.78;0.8912;0.891;10.915
184;1.8;0.9013;0.901;11.035
186;1.8;0.9112;0.911;11.155
188;1.82;0.9212;0.921;11.275
190;1.82;0.9312;0.931;11.395
192;1.84;0.9412;0.941;11.515
194;1.84;0.9512;0.951;11.635
196;1.86;0.9613;0.961;11.755
198;1.86;0.9712;0.971;11.875
200;1.88;0.9812;0.981;11.995
202;1.88;0.9912;0.991;12.115
204;1.9;1.0013;1.001;12.235
206;1.9;1.0113;1.011;12.355
208;1.92;1.0213;1.021;12.475
210;1.94;1.0312;1.031;12.595
212;1.94;1.0412;1.041;12.715
214;1.96;1.0512;1.051;12.835
216;1.98;1.0612;1.061;12.955
218;1.98;1.0712;1.071;13.075
220;2;1.0812;1.081;13.195
222;2.02;1.0912;1.091;13.315
224;2.02;1.1012;1.101;13.435
226;2.04;1.1112;1.111;13.555
228;2.06;1.1213;1.121;13.675
230;2.06;1.1313;1.131;13.795
232;2.08;1.1413;1.141;13.915
234;2.1;1.1513;1.151;14.035
236;2.12;1.1612;1.161;14.155
238;2.12;1.1712;1.171;14.275
240;2.14;1.1812;1.181;14.395
242;2.16;1.1912;1.191;14.515
244;2.16;1.2012;1.201;14.635
246;2.18;1.2112;1.211;14.755
248;2.2;1.2212;1.221;14.875
250;2.2;1.2312;1.231;14.995
252;2.22;1.2412;1.241;15.115
254;2.24;1.2525;1.252;15.235
256;2.26;1.2625;1.262;15.355
258;2.26;1.2725;1.272;15.475
260;2.28;1.2825;1.283;15.595
262;2.3;1.2925;1.293;15.715
264;2.3;1.3025;1.303;15.835
266;2.3;1.3125;1.312;15.955
268;2.32;1.3225;1.322;16.075
270;2.34;1.3325;1.332;16.195
272;2.34;1.3425;1.342;16.315
274;2.36;1.3525;1.352;16.435
276;2.38;1.3612;1.361;16.555
278;2.38;1.3725;1.372;16.675
280;2.4;1.3825;1.382;16.795
282;2.42;1.3925;1.392;16.915
284;2.42;1.4025;1.402;17.035
286;2.44;1.4125;1.413;17.155
288;2.44;1.4225;1.423;17.275
290;2.46;1.4325;1.433;17.395
292;2.48;1.4425;1.442;17.515
294;2.5;1.4525;1.452;17.635
296;2.52;1.4625;1.462;17.755
298;2.52;1.4725;1.472;17.875
300;2.54;1.4825;1.482;17.995
302;2.56;1.4925;1.492;18.115
304;2.56;1.5025;1.502;18.235
306;2.58;1.5125;1.512;18.355
308;2.6;1.5225;1.522;18.475
310;2.6;1.5325;1.532;18.595
312;2.62;1.5425;1.543;18.715
314;2.64;1.5525;1.553;18.835
316;2.64;1.5625;1.562;18.955
318;2.66;1.5725;1.572;19.075
320;2.68;1.5825;1.582;19.195
322;2.7;1.5925;1.592;19.315
324;2.72;1.6025;1.602;19.435
326;2.74;1.6125;1.612;19.555
328;2.74;1.6225;1.622;19.675
330;2.76;1.6325;1.632;19.795
332;2.78;1.6425;1.642;19.915
334;2.8;1.6525;1.652;20.035
336;2.8;1.6625;1.662;20.155
338;2.82;1.6725;1.673;20.275
340;2.84;1.6825;1.683;20.395
342;2.86;1.6925;1.692;20.515
344;2.86;1.7025;1.702;20.635
346;2.88;1.7125;1.712;20.755
348;2.9;1.7225;1.722;20.875
350;2.92;1.7325;1.732;20.995
352;2.94;1.7425;1.742;21.115
354;2.96;1.7525;1.752;21.235
356;2.98;1.7625;1.762;21.355
358;3;1.7725;1.772;21.475
360;3.02;1.7825;1.782;21.595
362;3.04;1.7925;1.793;21.715
364;3.06;1.8025;1.803;21.835
366;3.08;1.8125;1.812;21.955
368;3.12;1.8225;1.822;22.075
370;3.14;1.8338;1.834;22.195
372;3.16;1.8438;1.844;22.315
374;3.18;1.8537;1.854;22.435
376;3.22;1.8637;1.864;22.555
378;3.24;1.8737;1.874;22.675
380;3.26;1.8837;1.884;22.795
382;3.28;1.8937;1.894;22.915
384;3.32;1.9037;1.904;23.035
386;3.34;1.9137;1.914;23.155
388;3.36;1.9237;1.924;23.275
390;3.4;1.9337;1.934;23.395
392;3.42;1.9437;1.944;23.515
394;3.46;1.9538;1.954;23.635
396;3.48;1.9638;1.964;23.755
398;3.5;1.9737;1.974;23.875
400;3.54;1.9837;1.984;23.995
402;3.56;1.9937;1.994;24.115
404;3.6;2.0037;2.004;24.235
406;3.62;2.0137;2.014;24.355
408;3.66;2.0238;2.024;24.475
410;3.68;2.0338;2.034;24.595
412;3.72;2.0438;2.044;24.715
414;3.74;2.0538;2.054;24.835
416;3.78;2.0638;2.064;24.955
418;3.8;2.0738;2.074;25.075
420;3.84;2.0838;2.084;25.195
422;3.86;2.095;2.095;25.315
424;3.9;2.105;2.105;25.435
426;3.94;2.115;2.115;25.555
428;3.96;2.125;2.125;25.675
430;4;2.135;2.135;25.795
432;4.02;2.145;2.145;25.915
434;4.06;2.155;2.155;26.035
436;4.1;2.165;2.165;26.155
438;4.12;2.175;2.175;26.275
440;4.16;2.185;2.185;26.395
442;4.2;2.195;2.195;26.515
444;4.24;2.205;2.205;26.635
446;4.28;2.215;2.215;26.755
448;4.3;2.225;2.225;26.875
450;4.34;2.235;2.235;26.995
452;4.38;2.245;2.245;27.115
454;4.42;2.255;2.255;27.235
456;4.46;2.265;2.265;27.355
458;4.5;2.275;2.275;27.475
460;4.54;2.285;2.285;27.595
462;4.56;2.295;2.295;27.715
464;4.6;2.305;2.305;27.835
466;4.64;2.315;2.315;27.955
468;4.68;2.325;2.325;28.075
470;4.72;2.335;2.335;28.195
472;4.76;2.345;2.345;28.315
474;4.8;2.355;2.355;28.435
476;4.84;2.365;2.365;28.555
478;4.88;2.375;2.375;28.675
480;4.92;2.385;2.385;28.795
482;4.96;2.395;2.395;28.915
484;5;2.405;2.405;29.035
486;5.04;2.415;2.415;29.155
488;5.1;2.425;2.425;29.275
490;5.14;2.435;2.435;29.395
492;5.16;2.445;2.445;29.515
494;5.2;2.455;2.455;29.635
496;5.24;2.465;2.465;29.755
498;5.28;2.475;2.475;29.875
500;5.34;2.485;2.485;29.995
502;5.38;2.495;2.495;30.115
504;5.42;2.505;2.505;30.235
506;5.46;2.515;2.515;30.355
508;5.5;2.525;2.525;30.475
510;5.54;2.535;2.535;30.595
512;5.58;2.545;2.545;30.715
514;5.62;2.555;2.555;30.835
516;5.68;2.565;2.565;30.955
518;5.72;2.575;2.575;31.075
520;5.76;2.5862;2.586;31.195
522;5.8;2.5963;2.596;31.315
524;5.86;2.6063;2.606;31.435
526;5.9;2.6163;2.616;31.555
528;5.94;2.6263;2.626;31.675
530;5.98;2.6363;2.636;31.795
532;6.04;2.6463;2.646;31.915
534;6.08;2.6562;2.656;32.035
536;6.12;2.6662;2.666;32.155
538;6.18;2.6762;2.676;32.275
540;6.22;2.6862;2.686;32.395
542;6.26;2.695;2.695;32.515
544;6.3;2.705;2.705;32.635
546;6.36;2.7162;2.716;32.755
548;6.4;2.7262;2.726;32.875
550;6.44;2.7362;2.736;32.995
552;6.5;2.7462;2.746;33.115
554;6.54;2.7562;2.756;33.235
556;6.6;2.7662;2.766;33.355
558;6.64;2.7762;2.776;33.475
560;6.68;2.7862;2.786;33.595
562;6.74;2.7962;2.796;33.715
564;6.78;2.8062;2.806;33.835
566;6.84;2.8162;2.816;33.955
568;6.88;2.8262;2.826;34.075
570;6.94;2.8362;2.836;34.195
572;6.98;2.8462;2.846;34.315
574;7.02;2.8563;2.856;34.435
576;7.08;2.8663;2.866;34.555
578;7.14;2.8763;2.876;34.675
580;7.18;2.8863;2.886;34.795
582;7.24;2.8963;2.896;34.915
584;7.28;2.9062;2.906;35.035
586;7.34;2.9162;2.916;35.155
588;7.4;2.9262;2.926;35.275
590;7.44;2.9362;2.936;35.395
592;7.5;2.9462;2.946;35.515
594;7.56;2.9562;2.956;35.635
596;7.6;2.9662;2.966;35.755
598;7.66;2.9762;2.976;35.875
600;7.72;2.9862;2.986;35.995
602;7.78;2.9962;2.996;36.115
604;7.84;3.0062;3.006;36.235
606;7.9;3.0162;3.016;36.355
608;7.96;3.0262;3.026;36.475
610;8;3.0362;3.036;36.595
612;8.06;3.0462;3.046;36.715
614;8.12;3.0562;3.056;36.835
616;8.16;3.0662;3.066;36.955
618;8.18;3.0762;3.076;37.075
620;8.24;3.0862;3.086;37.195
622;8.3;3.0962;3.096;37.315
624;8.36;3.1063;3.106;37.435
626;8.42;3.1163;3.116;37.555
628;8.48;3.1263;3.126;37.675
630;8.56;3.1363;3.136;37.795
632;8.62;3.1463;3.146;37.915
634;8.68;3.1562;3.156;38.035
636;8.74;3.1662;3.166;38.155
638;8.78;3.1762;3.176;38.275
640;8.86;3.1875;3.188;38.395
642;8.92;3.1975;3.197;38.515
644;8.98;3.2075;3.207;38.635
646;9.04;3.2175;3.217;38.755
648;9.12;3.2275;3.227;38.875
650;9.18;3.2375;3.237;38.995
652;9.26;3.2475;3.247;39.115
654;9.32;3.2575;3.257;39.235
656;9.4;3.2675;3.267;39.355
658;9.46;3.2775;3.277;39.475
660;9.52;3.2875;3.287;39.595
662;9.6;3.2975;3.297;39.715
664;9.66;3.3075;3.307;39.835
666;9.72;3.3175;3.317;39.955
668;9.8;3.3275;3.327;40.075
670;9.86;3.3375;3.337;40.195
672;9.94;3.3475;3.347;40.315
674;10;3.3575;3.357;40.435
676;10.08;3.3675;3.367;40.555
678;10.14;3.3775;3.377;40.675
680;10.2;3.3875;3.387;40.795
682;10.28;3.3975;3.398;40.915
684;10.34;3.4075;3.408;41.035
686;10.42;3.4175;3.418;41.155
688;10.48;3.4275;3.428;41.275
690;10.56;3.4375;3.438;41.395
692;10.62;3.4475;3.447;41.515
694;10.7;3.4575;3.457;41.635
696;10.78;3.4675;3.467;41.755
698;10.84;3.4775;3.477;41.875
700;10.88;3.485;3.485;41.995
702;10.96;3.495;3.495;42.115
704;11.04;3.505;3.505;42.235
706;11.12;3.515;3.515;42.355
708;11.18;3.525;3.525;42.475
710;11.26;3.535;3.535;42.595
712;11.32;3.545;3.545;42.715
714;11.4;3.555;3.555;42.835
716;11.48;3.565;3.565;42.955
718;11.54;3.575;3.575;43.075
720;11.62;3.585;3.585;43.195
722;11.7;3.595;3.595;43.315
724;11.76;3.605;3.605;43.435
726;11.84;3.615;3.615;43.555
728;11.92;3.625;3.625;43.675
730;11.98;3.635;3.635;43.795
732;12.06;3.645;3.645;43.915
734;12.14;3.655;3.655;44.035
736;12.22;3.665;3.665;44.155
738;12.28;3.675;3.675;44.275
740;12.36;3.685;3.685;44.395
742;12.44;3.695;3.695;44.515
744;12.52;3.705;3.705;44.635
746;12.58;3.715;3.715;44.755
748;12.66;3.725;3.725;44.875
750;12.74;3.735;3.735;44.995
752;12.82;3.745;3.745;45.115
754;12.9;3.755;3.755;45.235
756;12.96;3.765;3.765;45.355
758;13.04;3.775;3.775;45.475
760;13.12;3.785;3.785;45.595
762;13.2;3.795;3.795;45.715
764;13.28;3.805;3.805;45.835
766;13.34;3.815;3.815;45.955
768;13.42;3.825;3.825;46.075
770;13.5;3.835;3.835;46.195
772;13.58;3.845;3.845;46.315
774;13.66;3.855;3.855;46.435
776;13.74;3.865;3.865;46.555
778;13.8;3.875;3.875;46.675
780;13.88;3.885;3.885;46.795
782;13.96;3.895;3.895;46.915
784;14.04;3.905;3.905;47.035
786;14.12;3.915;3.915;47.155
788;14.2;3.925;3.925;47.275
790;14.28;3.935;3.935;47.395
792;14.36;3.945;3.945;47.515
794;14.44;3.955;3.955;47.635
796;14.52;3.965;3.965;47.755
798;14.6;3.975;3.975;47.875
800;14.68;3.985;3.985;47.995
802;14.76;3.995;3.995;48.115
804;14.84;4.005;4.005;48.235
806;14.92;4.0163;4.016;48.355
808;15;4.0262;4.026;48.475
810;15.08;4.0363;4.036;48.595
812;15.16;4.0462;4.046;48.715
814;15.24;4.0563;4.056;48.835
816;15.32;4.0662;4.066;48.955
818;15.38;4.0763;4.076;49.075
820;15.46;4.0862;4.086;49.195
822;15.56;4.0963;4.096;49.315
824;15.64;4.1062;4.106;49.435
826;15.72;4.1163;4.116;49.555
828;15.8;4.1262;4.126;49.675
830;15.88;4.1363;4.136;49.795
832;15.96;4.1462;4.146;49.915
834;16.04;4.1562;4.156;50.035
836;16.12;4.1662;4.166;50.155
838;16.2;4.1762;4.176;50.275
840;16.28;4.1862;4.186;50.395
842;16.36;4.1962;4.196;50.515
844;16.44;4.2062;4.206;50.635
846;16.52;4.2162;4.216;50.755
848;16.6;4.2262;4.226;50.875
850;16.7;4.2362;4.236;50.995
852;16.78;4.2462;4.246;51.115
854;16.86;4.2562;4.256;51.235
856;16.94;4.2663;4.266;51.355
858;17.02;4.2762;4.276;51.475
860;17.1;4.2863;4.286;51.595
862;17.18;4.2962;4.296;51.715
864;17.28;4.3063;4.306;51.835
866;17.36;4.3162;4.316;51.955
868;17.44;4.3263;4.326;52.075
870;17.52;4.3362;4.336;52.195
872;17.6;4.3463;4.346;52.315
874;17.68;4.3562;4.356;52.435
876;17.76;4.3663;4.366;52.555
878;17.86;4.3762;4.376;52.675
880;17.94;4.3863;4.386;52.795
882;18.02;4.3962;4.396;52.915
884;18.1;4.4062;4.406;53.035
886;18.18;4.4162;4.416;53.155
888;18.28;4.4262;4.426;53.275
890;18.36;4.4362;4.436;53.395
892;18.44;4.4462;4.446;53.515
894;18.52;4.4562;4.456;53.635
896;18.62;4.4675;4.467;53.755
898;18.7;4.4775;4.477;53.875
900;18.78;4.4875;4.487;53.995
902;18.86;4.4975;4.497;54.115
904;18.96;4.5075;4.507;54.235
906;19.04;4.5175;4.517;54.355
908;19.12;4.5275;4.527;54.475
910;19.2;4.5375;4.537;54.595
912;19.28;4.5475;4.548;54.715
914;19.38;4.5575;4.557;54.835
916;19.46;4.5675;4.568;54.955
918;19.54;4.5775;4.577;55.075
920;19.62;4.5875;4.588;55.195
922;19.72;4.5975;4.597;55.315
924;19.8;4.6075;4.608;55.435
926;19.88;4.6175;4.617;55.555
928;19.98;4.6275;4.628;55.675
930;20.06;4.6375;4.637;55.795
932;20.14;4.6475;4.648;55.915
934;20.22;4.6575;4.657;56.035
936;20.3;4.6675;4.668;56.155
938;20.4;4.6775;4.677;56.275
940;20.48;4.6875;4.688;56.395
942;20.58;4.6975;4.697;56.515
944;20.66;4.7075;4.707;56.635
946;20.74;4.7175;4.717;56.755
948;20.84;4.7275;4.727;56.875
950;20.92;4.7375;4.737;56.995
952;21;4.7475;4.747;57.115
954;21.1;4.7575;4.757;57.235
956;21.18;4.7675;4.767;57.355
958;21.26;4.7775;4.777;57.475
960;21.36;4.7875;4.787;57.595
962;21.44;4.7975;4.797;57.715
964;21.54;4.8075;4.807;57.835
966;21.62;4.8175;4.818;57.955
968;21.7;4.8275;4.827;58.075
970;21.8;4.8375;4.838;58.195
972;21.88;4.8475;4.847;58.315
974;21.96;4.8575;4.858;58.435
976;22.06;4.8675;4.867;58.555
978;22.14;4.8775;4.878;58.675
980;22.22;4.8875;4.887;58.795
982;22.32;4.8975;4.898;58.915
984;22.4;4.9075;4.907;59.035
986;22.5;4.9175;4.918;59.155
988;22.58;4.9275;4.927;59.275
990;22.68;4.9375;4.938;59.395
992;22.76;4.9475;4.947;59.515
994;22.84;4.9575;4.957;59.635
996;22.94;4.9675;4.967;59.755
998;23.02;4.9775;4.977;59.875
1000;23.12;4.9875;4.987;59.995
1002;23.2;4.9975;4.997;60.115
1004;23.3;5.0075;5.007;60.235
1006;23.38;5.0175;5.017;60.355
1008;23.48;5.0275;5.027;60.475
1010;23.56;5.0375;5.037;60.595
1012;23.64;5.0475;5.047;60.715
1014;23.74;5.0575;5.057;60.835
1016;23.82;5.0675;5.068;60.955
1018;23.92;5.0775;5.077;61.075
1020;24;5.0875;5.088;61.195
1022;24.1;5.0975;5.097;61.315
1024;24.18;5.1075;5.108;61.435
1026;24.28;5.1175;5.117;61.555
1028;24.36;5.1275;5.128;61.675
1030;24.46;5.1375;5.137;61.795
1032;24.54;5.1487;5.149;61.915
1034;24.64;5.1588;5.159;62.035
1036;24.72;5.1687;5.169;62.155
1038;24.82;5.1788;5.179;62.275
1040;24.9;5.1887;5.189;62.395
1042;25;5.1988;5.199;62.515
1044;25.08;5.2087;5.209;62.635
1046;25.18;5.2188;5.219;62.755
1048;25.26;5.2287;5.229;62.875
1050;25.34;5.2387;5.239;62.995
1052;25.44;5.2487;5.249;63.115
1054;25.52;5.2587;5.259;63.235
1056;25.62;5.2687;5.269;63.355
1058;25.72;5.2787;5.279;63.475
1060;25.8;5.2887;5.289;63.595
1062;25.9;5.2987;5.299;63.715
1064;25.98;5.3087;5.309;63.835
1066;26.06;5.3187;5.319;63.955
1068;26.16;5.3287;5.329;64.075
1070;26.26;5.3387;5.339;64.195
1072;26.34;5.3488;5.349;64.315
1074;26.44;5.3587;5.359;64.435
1076;26.52;5.3688;5.369;64.555
1078;26.62;5.3787;5.379;64.675
1080;26.7;5.3888;5.389;64.795
1082;26.8;5.3987;5.399;64.915
1084;26.88;5.4088;5.409;65.035
1086;26.98;5.4187;5.419;65.155
1088;27.08;5.4288;5.429;65.275
1090;27.16;5.4387;5.439;65.395
1092;27.26;5.4488;5.449;65.515
1094;27.34;5.4587;5.459;65.635
1096;27.44;5.4688;5.469;65.755
1098;27.52;5.4787;5.479;65.875
1100;27.62;5.4887;5.489;65.995
1102;27.72;5.4987;5.499;66.115
1104;27.8;5.5087;5.509;66.235
1106;27.9;5.5187;5.519;66.355
1108;28;5.5287;5.529;66.475
1110;28.08;5.5387;5.539;66.595
1112;28.18;5.5487;5.549;66.715
1114;28.26;5.5587;5.559;66.835
1116;28.36;5.5687;5.569;66.955
1118;28.46;5.5787;5.579;67.075
1120;28.54;5.5887;5.589;67.195
1122;28.64;5.5987;5.599;67.315
1124;28.72;5.6087;5.609;67.435
1126;28.82;5.6188;5.619;67.555
1128;28.92;5.6287;5.629;67.675
1130;29;5.6388;5.639;67.795
1132;29.1;5.6487;5.649;67.915
1134;29.18;5.6588;5.659;68.035
1136;29.28;5.6687;5.669;68.155
1138;29.36;5.6788;5.679;68.275
1140;29.46;5.6887;5.689;68.395
1142;29.56;5.6988;5.699;68.515
1144;29.66;5.7087;5.709;68.635
1146;29.74;5.7188;5.719;68.755
1148;29.84;5.7287;5.729;68.875
1150;29.94;5.7387;5.739;68.995
1152;30.02;5.7487;5.749;69.115
1154;30.12;5.7587;5.759;69.235
1156;30.2;5.7687;5.769;69.355
1158;30.3;5.7787;5.779;69.475
1160;30.38;5.7887;5.789;69.595
1162;30.48;5.7987;5.799;69.715
1164;30.58;5.8087;5.809;69.835
1166;30.66;5.8187;5.819;69.955
1168;30.76;5.8287;5.829;70.075
1170;30.86;5.8387;5.839;70.195
1172;30.94;5.8487;5.849;70.315
1174;31.04;5.8587;5.859;70.435
1176;31.14;5.8688;5.869;70.555
1178;31.22;5.8787;5.879;70.675
1180;31.32;5.8888;5.889;70.795
1182;31.42;5.8987;5.899;70.915
1184;31.5;5.9088;5.909;71.035
1186;31.6;5.9187;5.919;71.155
1188;31.7;5.9288;5.929;71.275
1190;31.78;5.9387;5.939;71.395
1192;31.88;5.9488;5.949;71.515
1194;31.98;5.9587;5.959;71.635
1196;32.06;5.9688;5.969;71.755
1198;32.16;5.9787;5.979;71.875
1200;32.26;5.9887;5.989;71.995
1202;32.36;5.9987;5.999;72.115
1204;32.44;6.0087;6.009;72.235
1206;32.54;6.0187;6.019;72.355
1208;32.64;6.0287;6.029;72.475
1210;32.72;6.0387;6.039;72.595
1212;32.82;6.0487;6.049;72.715
1214;32.92;6.0587;6.059;72.835
1216;33;6.0687;6.069;72.955
1218;33.1;6.0787;6.079;73.075
1220;33.18;6.0887;6.089;73.195
1222;33.28;6.0987;6.099;73.315
1224;33.38;6.1087;6.109;73.435
1226;33.48;6.1188;6.119;73.555
1228;33.56;6.1287;6.129;73.675
1230;33.66;6.1388;6.139;73.795
1232;33.76;6.1487;6.149;73.915
1234;33.86;6.1588;6.159;74.035
1236;33.94;6.1687;6.169;74.155
1238;34.04;6.1788;6.179;74.275
1240;34.14;6.1887;6.189;74.395
1242;34.22;6.1988;6.199;74.515
1244;34.32;6.2075;6.207;74.635
1246;34.4;6.2175;6.217;74.755
1248;34.5;6.2275;6.227;74.875
1250;34.6;6.2375;6.237;74.995
1252;34.7;6.2475;6.247;75.115
1254;34.8;6.2575;6.257;75.235
1256;34.88;6.2675;6.267;75.355
1258;34.98;6.2787;6.279;75.475
1260;35.08;6.2875;6.287;75.595
1262;35.16;6.2975;6.297;75.715
1264;35.26;6.3075;6.307;75.835
1266;35.34;6.3175;6.317;75.955
1268;35.44;6.3275;6.327;76.075
1270;35.54;6.3375;6.338;76.195
1272;35.62;6.3475;6.347;76.315
1274;35.72;6.3575;6.358;76.435
1276;35.82;6.3675;6.367;76.555
1278;35.92;6.3775;6.378;76.675
1280;36;6.3875;6.387;76.795
1282;36.1;6.3975;6.398;76.915
1284;36.2;6.4075;6.407;77.035
1286;36.28;6.4175;6.418;77.155
1288;36.38;6.4275;6.427;77.275
1290;36.48;6.4375;6.438;77.395
1292;36.58;6.4475;6.447;77.515
1294;36.66;6.4575;6.457;77.635
1296;36.76;6.4675;6.467;77.755
1298;36.84;6.4775;6.477;77.875
1300;36.94;6.4875;6.487;77.995
1302;37.04;6.4975;6.497;78.115
1304;37.14;6.5075;6.507;78.235
1306;37.24;6.5175;6.517;78.355
1308;37.32;6.5275;6.527;78.475
1310;37.42;6.5375;6.537;78.595
1312;37.52;6.5475;6.547;78.715
1314;37.6;6.5575;6.557;78.835
1316;37.7;6.5675;6.567;78.955
1318;37.8;6.5775;6.577;79.075
1320;37.9;6.5875;6.587;79.195
1322;37.98;6.5975;6.597;79.315
1324;38.08;6.6075;6.608;79.435
1326;38.18;6.6175;6.617;79.555
1328;38.26;6.6275;6.628;79.675
1330;38.36;6.6375;6.637;79.795
1332;38.46;6.6475;6.648;79.915
1334;38.56;6.6575;6.657;80.035
1336;38.66;6.6675;6.668;80.155
1338;38.74;6.6775;6.677;80.275
1340;38.84;6.6875;6.688;80.395
1342;38.94;6.6975;6.697;80.515
1344;39.02;6.7075;6.707;80.635
1346;39.12;6.7175;6.717;80.755
1348;39.22;6.7275;6.727;80.875
1350;39.32;6.7375;6.737;80.995
1352;39.4;6.7475;6.747;81.115
1354;39.5;6.7575;6.757;81.235
1356;39.6;6.7675;6.767;81.355
1358;39.7;6.7775;6.777;81.475
1360;39.78;6.7875;6.787;81.595
1362;39.88;6.7975;6.797;81.715
1364;39.98;6.8075;6.807;81.835
1366;40.08;6.8175;6.817;81.955
1368;40.18;6.8275;6.827;82.075
1370;40.26;6.8375;6.837;82.195
1372;40.36;6.8475;6.847;82.315
1374;40.46;6.8575;6.858;82.435
1376;40.54;6.8675;6.867;82.555
1378;40.64;6.8775;6.878;82.675
1380;40.74;6.8875;6.887;82.795
1382;40.82;6.8975;6.898;82.915
1384;40.92;6.9075;6.907;83.035
1386;41.02;6.9162;6.916;83.155
1388;41.1;6.9262;6.926;83.275
1390;41.2;6.9362;6.936;83.395
1392;41.3;6.9462;6.946;83.515
1394;41.4;6.9562;6.956;83.635
1396;41.5;6.9662;6.966;83.755
1398;41.58;6.9762;6.976;83.875
1400;41.68;6.9862;6.986;83.995
1402;41.78;6.9962;6.996;84.115
1404;41.88;7.0062;7.006;84.235
1406;41.98;7.0162;7.016;84.355
1408;42.06;7.0262;7.026;84.475
1410;42.16;7.0362;7.036;84.595
1412;42.26;7.0462;7.046;84.715
1414;42.36;7.0562;7.056;84.835
1416;42.44;7.0662;7.066;84.955
1418;42.54;7.0763;7.076;85.075
1420;42.64;7.0862;7.086;85.195
1422;42.74;7.0963;7.096;85.315
1424;42.82;7.1062;7.106;85.435
1426;42.92;7.1163;7.116;85.555
1428;43.02;7.1262;7.126;85.675
1430;43.12;7.1363;7.136;85.795
1432;43.2;7.1462;7.146;85.915
1434;43.3;7.1562;7.156;86.035
1436;43.4;7.1662;7.166;86.155
1438;43.5;7.1762;7.176;86.275
1440;43.6;7.1862;7.186;86.395
1442;43.7;7.1962;7.196;86.515
1444;43.78;7.2062;7.206;86.635
1446;43.88;7.2162;7.216;86.755
1448;43.98;7.2262;7.226;86.875
1450;44.08;7.2362;7.236;86.995
1452;44.18;7.2462;7.246;87.115
1454;44.26;7.2562;7.256;87.235
1456;44.36;7.2662;7.266;87.355
1458;44.46;7.2762;7.276;87.475
1460;44.56;7.2862;7.286;87.595
1462;44.66;7.2962;7.296;87.715
1464;44.76;7.3062;7.306;87.835
1466;44.84;7.3162;7.316;87.955
1468;44.94;7.3262;7.326;88.075
1470;45.04;7.3362;7.336;88.195
1472;45.14;7.3463;7.346;88.315
1474;45.22;7.3562;7.356;88.435
1476;45.32;7.3663;7.366;88.555
1478;45.4;7.3762;7.376;88.675
1480;45.5;7.3863;7.386;88.795
1482;45.6;7.3962;7.396;88.915
1484;45.7;7.4062;7.406;89.035
1486;45.8;7.4162;7.416;89.155
1488;45.88;7.4262;7.426;89.275
1490;45.98;7.4362;7.436;89.395
1492;46.08;7.4462;7.446;89.515
1494;46.18;7.4562;7.456;89.635
1496;46.28;7.4662;7.466;89.755
1498;46.38;7.4762;7.476;89.875
1500;46.46;7.4862;7.486;89.995
1502;46.56;7.4962;7.496;90.115
1504;46.66;7.5062;7.506;90.235
1506;46.76;7.5162;7.516;90.355
1508;46.84;7.5262;7.526;90.475
1510;46.94;7.5362;7.536;90.595
1512;47.04;7.5462;7.546;90.715
1514;47.14;7.5562;7.556;90.835
1516;47.24;7.5662;7.566;90.955
1518;47.34;7.5762;7.576;91.075
1520;47.42;7.5862;7.586;91.195
1522;47.52;7.5963;7.596;91.315
1524;47.62;7.6062;7.606;91.435
1526;47.72;7.6163;7.616;91.555
1528;47.82;7.6262;7.626;91.675
1530;47.9;7.6363;7.636;91.795
1532;48;7.6462;7.646;91.915
1534;48.1;7.6562;7.656;92.035
1536;48.2;7.6662;7.666;92.155
1538;48.3;7.6762;7.676;92.275
1540;48.38;7.6862;7.686;92.395
1542;48.48;7.6962;7.696;92.515
1544;48.58;7.7062;7.706;92.635
1546;48.68;7.7162;7.716;92.755
1548;48.76;7.7262;7.726;92.875
1550;48.86;7.7362;7.736;92.995
1552;48.96;7.7462;7.746;93.115
1554;33.6;7.785;7.785;93.235
1556;0.12;7.7862;7.786;93.355
1558;0.1;7.7937;7.794;93.475
1560;0.1;7.8038;7.804;93.595
1562;0.1;7.8137;7.814;93.715
1564;0.1;7.8238;7.824;93.835
1566;0.1;7.8337;7.834;93.955
1568;0.1;7.8438;7.844;94.075
1570;0.1;7.8537;7.854;94.195
1572;0.1;7.8637;7.864;94.315
1574;0.1;7.8737;7.874;94.435
1576;0.1;7.8837;7.884;94.555
1578;0.1;7.8925;7.892;94.675
1580;0.1;7.9025;7.902;94.795
1582;0.1;7.9125;7.912;94.915
1584;0.1;7.9225;7.922;95.035
1586;0.1;7.9337;7.934;95.155
1588;0.1;7.9437;7.944;95.275
1590;0.1;7.9537;7.954;95.395
1592;0.1;7.9637;7.964;95.515
1594;0.1;7.9725;7.972;95.635
1596;0.1;7.9825;7.982;95.755
1598;0.1;7.9925;7.992;95.875
1600;0.1;8.0025;8.002;95.995
1602;0.1;8.0138;8.014;96.115
1604;0.1;8.0237;8.024;96.235
1606;0.1;8.0337;8.034;96.355
1608;0.1;8.0437;8.044;96.475
1610;0.1;8.0525;8.052;96.595
1612;0.1;8.0625;8.062;96.715
1614;0.1;8.0725;8.073;96.835
1616;0.1;8.0825;8.082;96.955
1618;0.1;8.0925;8.092;97.075
1620;0.1;8.1025;8.102;97.195
1622;0.1;8.1125;8.113;97.315
1624;0.1;8.1225;8.122;97.435
1626;0.1;8.1325;8.132;97.555
1628;0.1;8.1425;8.142;97.675
1630;0.1;8.1525;8.153;97.795
1632;0.1;8.1625;8.162;97.915
1634;0.1;8.1725;8.172;98.035
1636;0.1;8.1825;8.182;98.155
1638;0.1;8.1925;8.193;98.275
1640;0.1;8.2025;8.202;98.395