File: Experimento 4/Resultados Experimento 4-20210423/arquivos csv/açoRev.csv
index;Load(kN);Defor(mm);Stroke(mm);Time(s)
0;0;0;0;0
2;0;0.51;0;0.115
4;0.02;0.51;0.01;0.235
6;0.02;0.512;0.02;0.355
8;0.04;0.512;0.029;0.475
10;0.06;0.514;0.04;0.595
12;0.06;0.514;0.05;0.715
14;0.06;0.514;0.059;0.835
16;0.06;0.514;0.069;0.955
18;0.06;0.514;0.079;1.075
20;0.06;0.514;0.089;1.195
22;0.06;0.514;0.099;1.315
24;0.06;0.514;0.109;1.435
26;0.06;0.514;0.119;1.555
28;0.06;0.514;0.129;1.675
30;0.06;0.514;0.139;1.795
32;0.06;0.514;0.149;1.915
34;0.06;0.514;0.159;2.035
36;0.06;0.514;0.169;2.155
38;0.06;0.514;0.179;2.275
40;0.06;0.514;0.189;2.395
42;0.06;0.514;0.199;2.515
44;0.06;0.516;0.209;2.635
46;0.06;0.514;0.219;2.755
48;0.06;0.516;0.229;2.875
50;0.06;0.514;0.239;2.995
52;0.06;0.516;0.249;3.115
54;0.06;0.516;0.259;3.235
56;0.06;0.516;0.269;3.355
58;0.06;0.516;0.279;3.475
60;0.06;0.516;0.289;3.595
62;0.06;0.516;0.299;3.715
64;0.06;0.516;0.309;3.835
66;0.06;0.516;0.319;3.955
68;0.06;0.516;0.329;4.075
70;0.06;0.516;0.339;4.195
72;0.06;0.516;0.349;4.315
74;0.08;0.516;0.359;4.435
76;0.08;0.516;0.369;4.555
78;0.06;0.516;0.379;4.675
80;0.06;0.516;0.389;4.795
82;0.06;0.516;0.397;4.915
84;0.06;0.516;0.407;5.035
86;0.06;0.518;0.419;5.155
88;0.08;0.516;0.427;5.275
90;0.06;0.516;0.439;5.395
92;0.08;0.516;0.447;5.515
94;0.08;0.516;0.457;5.635
96;0.08;0.516;0.468;5.755
98;0.08;0.516;0.477;5.875
100;0.08;0.518;0.487;5.995
102;0.08;0.516;0.498;6.115
104;0.08;0.518;0.507;6.235
106;0.08;0.516;0.517;6.355
108;0.08;0.516;0.527;6.475
110;0.1;0.516;0.537;6.595
112;0.12;0.516;0.548;6.715
114;0.14;0.516;0.558;6.835
116;0.18;0.516;0.567;6.955
118;0.22;0.516;0.577;7.075
120;0.28;0.516;0.587;7.195
122;0.34;0.514;0.597;7.315
124;0.4;0.514;0.607;7.435
126;0.5;0.514;0.618;7.555
128;0.6;0.514;0.627;7.675
130;0.7;0.514;0.637;7.795
132;0.82;0.514;0.647;7.915
134;0.94;0.514;0.657;8.035
136;1.08;0.514;0.667;8.155
138;1.2;0.514;0.678;8.275
140;1.34;0.512;0.688;8.395
142;1.48;0.514;0.697;8.515
144;1.62;0.514;0.707;8.635
146;1.78;0.514;0.716;8.755
148;1.92;0.514;0.726;8.875
150;2.06;0.514;0.736;8.995
152;2.22;0.514;0.746;9.115
154;2.36;0.514;0.756;9.235
156;2.52;0.516;0.766;9.355
158;2.64;0.516;0.776;9.475
160;2.78;0.516;0.786;9.595
162;2.86;0.516;0.796;9.715
164;2.9;0.516;0.806;9.835
166;2.88;0.516;0.816;9.955
168;2.8;0.516;0.826;10.075
170;2.84;0.516;0.836;10.195
172;2.92;0.516;0.846;10.315
174;3.02;0.516;0.856;10.435
176;3.12;0.518;0.866;10.555
178;3.24;0.518;0.876;10.675
180;3.34;0.516;0.886;10.795
182;3.46;0.518;0.896;10.915
184;3.56;0.518;0.906;11.035
186;3.66;0.518;0.916;11.155
188;3.66;0.518;0.926;11.275
190;3.62;0.518;0.936;11.395
192;3.62;0.518;0.946;11.515
194;3.66;0.518;0.956;11.635
196;3.72;0.52;0.966;11.755
198;3.76;0.52;0.976;11.875
200;3.8;0.518;0.986;11.995
202;3.86;0.518;0.996;12.115
204;3.94;0.52;1.006;12.235
206;4.02;0.52;1.016;12.355
208;4.1;0.52;1.026;12.475
210;4.18;0.52;1.036;12.595
212;4.26;0.522;1.046;12.715
214;4.34;0.522;1.056;12.835
216;4.42;0.522;1.066;12.955
218;4.5;0.522;1.076;13.075
220;4.6;0.522;1.086;13.195
222;4.68;0.522;1.096;13.315
224;4.78;0.522;1.106;13.435
226;4.88;0.524;1.116;13.555
228;4.96;0.524;1.126;13.675
230;5.06;0.524;1.135;13.795
232;5.16;0.526;1.145;13.915
234;5.26;0.526;1.155;14.035
236;5.34;0.526;1.165;14.155
238;5.44;0.526;1.175;14.275
240;5.54;0.526;1.185;14.395
242;5.64;0.528;1.195;14.515
244;5.74;0.528;1.205;14.635
246;5.84;0.528;1.215;14.755
248;5.94;0.528;1.225;14.875
250;6.02;0.53;1.235;14.995
252;6.12;0.53;1.245;15.115
254;6.22;0.53;1.255;15.235
256;6.32;0.53;1.265;15.355
258;6.42;0.532;1.275;15.475
260;6.52;0.532;1.285;15.595
262;6.62;0.532;1.295;15.715
264;6.7;0.534;1.305;15.835
266;6.82;0.534;1.315;15.955
268;6.9;0.534;1.325;16.075
270;7;0.534;1.335;16.195
272;7.1;0.534;1.345;16.315
274;7.2;0.536;1.355;16.435
276;7.3;0.536;1.365;16.555
278;7.4;0.536;1.375;16.675
280;7.5;0.538;1.385;16.795
282;7.6;0.536;1.395;16.915
284;7.7;0.538;1.405;17.035
286;7.8;0.538;1.415;17.155
288;7.88;0.54;1.425;17.275
290;7.98;0.54;1.435;17.395
292;8.08;0.54;1.445;17.515
294;8.18;0.54;1.455;17.635
296;8.28;0.54;1.465;17.755
298;8.38;0.542;1.475;17.875
300;8.48;0.542;1.485;17.995
302;8.58;0.542;1.495;18.115
304;8.7;0.544;1.505;18.235
306;8.8;0.544;1.515;18.355
308;8.9;0.544;1.525;18.475
310;9;0.544;1.535;18.595
312;9.1;0.546;1.545;18.715
314;9.2;0.546;1.555;18.835
316;9.3;0.548;1.565;18.955
318;9.4;0.546;1.575;19.075
320;9.5;0.548;1.585;19.195
322;9.6;0.548;1.595;19.315
324;9.7;0.548;1.605;19.435
326;9.8;0.55;1.615;19.555
328;9.9;0.55;1.625;19.675
330;10;0.55;1.635;19.795
332;10.1;0.55;1.645;19.915
334;10.2;0.552;1.655;20.035
336;10.3;0.552;1.665;20.155
338;10.4;0.552;1.675;20.275
340;10.5;0.554;1.685;20.395
342;10.6;0.554;1.695;20.515
344;10.72;0.554;1.705;20.635
346;10.8;0.554;1.715;20.755
348;10.92;0.554;1.725;20.875
350;11;0.556;1.735;20.995
352;11.12;0.556;1.745;21.115
354;11.2;0.556;1.755;21.235
356;11.32;0.556;1.765;21.355
358;11.42;0.558;1.775;21.475
360;11.52;0.558;1.785;21.595
362;11.62;0.558;1.795;21.715
364;11.72;0.56;1.805;21.835
366;11.84;0.56;1.815;21.955
368;11.94;0.56;1.825;22.075
370;12.04;0.56;1.835;22.195
372;12.14;0.562;1.845;22.315
374;12.26;0.562;1.855;22.435
376;12.36;0.562;1.865;22.555
378;12.46;0.564;1.875;22.675
380;12.56;0.564;1.885;22.795
382;12.68;0.564;1.895;22.915
384;12.78;0.566;1.905;23.035
386;12.88;0.564;1.915;23.155
388;13;0.566;1.925;23.275
390;13.1;0.566;1.935;23.395
392;13.2;0.568;1.945;23.515
394;13.32;0.568;1.955;23.635
396;13.42;0.568;1.965;23.755
398;13.52;0.568;1.975;23.875
400;13.64;0.57;1.985;23.995
402;13.74;0.57;1.995;24.115
404;13.86;0.57;2.005;24.235
406;13.96;0.57;2.015;24.355
408;14.06;0.57;2.025;24.475
410;14.16;0.572;2.035;24.595
412;14.28;0.574;2.045;24.715
414;14.38;0.572;2.055;24.835
416;14.5;0.574;2.065;24.955
418;14.6;0.574;2.075;25.075
420;14.7;0.574;2.085;25.195
422;14.82;0.576;2.095;25.315
424;14.92;0.576;2.105;25.435
426;15.02;0.576;2.115;25.555
428;15.12;0.576;2.125;25.675
430;15.24;0.578;2.135;25.795
432;15.34;0.578;2.145;25.915
434;15.46;0.578;2.155;26.035
436;15.56;0.58;2.165;26.155
438;15.68;0.58;2.175;26.275
440;15.78;0.58;2.185;26.395
442;15.9;0.582;2.195;26.515
444;16;0.582;2.205;26.635
446;16.1;0.582;2.215;26.755
448;16.2;0.582;2.222;26.875
450;16.32;0.584;2.232;26.995
452;16.42;0.584;2.243;27.115
454;16.54;0.584;2.253;27.235
456;16.64;0.586;2.263;27.355
458;16.76;0.586;2.273;27.475
460;16.86;0.586;2.283;27.595
462;16.98;0.586;2.293;27.715
464;17.08;0.586;2.303;27.835
466;17.2;0.588;2.312;27.955
468;17.32;0.588;2.322;28.075
470;17.42;0.59;2.332;28.195
472;17.54;0.59;2.342;28.315
474;17.64;0.59;2.352;28.435
476;17.76;0.592;2.362;28.555
478;17.88;0.592;2.372;28.675
480;17.98;0.592;2.382;28.795
482;18.1;0.592;2.392;28.915
484;18.2;0.594;2.402;29.035
486;18.32;0.594;2.412;29.155
488;18.42;0.594;2.422;29.275
490;18.54;0.596;2.432;29.395
492;18.66;0.596;2.442;29.515
494;18.76;0.596;2.452;29.635
496;18.88;0.596;2.461;29.755
498;19;0.598;2.471;29.875
500;19.12;0.598;2.481;29.995
502;19.22;0.598;2.491;30.115
504;19.34;0.598;2.501;30.235
506;19.46;0.6;2.511;30.355
508;19.58;0.6;2.521;30.475
510;19.68;0.6;2.531;30.595
512;19.8;0.602;2.541;30.715
514;19.92;0.602;2.551;30.835
516;20.04;0.602;2.561;30.955
518;20.14;0.604;2.571;31.075
520;20.26;0.604;2.581;31.195
522;20.36;0.604;2.591;31.315
524;20.48;0.606;2.601;31.435
526;20.6;0.606;2.611;31.555
528;20.72;0.606;2.621;31.675
530;20.82;0.606;2.631;31.795
532;20.94;0.608;2.641;31.915
534;21.06;0.608;2.651;32.035
536;21.18;0.608;2.661;32.155
538;21.3;0.61;2.671;32.275
540;21.42;0.61;2.681;32.395
542;21.54;0.61;2.691;32.515
544;21.66;0.612;2.701;32.635
546;21.78;0.612;2.711;32.755
548;21.88;0.612;2.721;32.875
550;22;0.612;2.731;32.995
552;22.12;0.614;2.741;33.115
554;22.24;0.614;2.751;33.235
556;22.36;0.614;2.761;33.355
558;22.48;0.616;2.771;33.475
560;22.58;0.616;2.781;33.595
562;22.7;0.616;2.791;33.715
564;22.82;0.616;2.801;33.835
566;22.94;0.618;2.811;33.955
568;23.06;0.618;2.821;34.075
570;23.18;0.62;2.831;34.195
572;23.3;0.62;2.841;34.315
574;23.42;0.62;2.851;34.435
576;23.54;0.62;2.861;34.555
578;23.64;0.622;2.871;34.675
580;23.76;0.622;2.881;34.795
582;23.88;0.622;2.891;34.915
584;24;0.624;2.901;35.035
586;24.12;0.624;2.911;35.155
588;24.24;0.624;2.921;35.275
590;24.36;0.626;2.931;35.395
592;24.48;0.626;2.941;35.515
594;24.6;0.626;2.951;35.635
596;24.72;0.628;2.961;35.755
598;24.84;0.628;2.971;35.875
600;24.96;0.628;2.981;35.995
602;25.06;0.628;2.991;36.115
604;25.18;0.63;3.001;36.235
606;25.3;0.63;3.011;36.355
608;25.42;0.63;3.021;36.475
610;25.54;0.632;3.031;36.595
612;25.66;0.632;3.041;36.715
614;25.78;0.632;3.05;36.835
616;25.9;0.634;3.061;36.955
618;26.02;0.634;3.071;37.075
620;26.14;0.634;3.081;37.195
622;26.26;0.636;3.091;37.315
624;26.38;0.636;3.101;37.435
626;26.5;0.636;3.11;37.555
628;26.62;0.636;3.12;37.675
630;26.74;0.638;3.13;37.795
632;26.86;0.638;3.14;37.915
634;26.98;0.64;3.15;38.035
636;27.1;0.64;3.16;38.155
638;27.22;0.64;3.17;38.275
640;27.34;0.64;3.18;38.395
642;27.46;0.642;3.19;38.515
644;27.58;0.642;3.2;38.635
646;27.72;0.642;3.21;38.755
648;27.84;0.644;3.22;38.875
650;27.96;0.644;3.23;38.995
652;28.08;0.644;3.24;39.115
654;28.2;0.646;3.25;39.235
656;28.32;0.646;3.26;39.355
658;28.44;0.646;3.27;39.475
660;28.56;0.648;3.28;39.595
662;28.68;0.648;3.29;39.715
664;28.8;0.648;3.3;39.835
666;28.92;0.65;3.31;39.955
668;29.04;0.65;3.32;40.075
670;29.16;0.65;3.33;40.195
672;29.28;0.65;3.34;40.315
674;29.4;0.652;3.35;40.435
676;29.54;0.652;3.36;40.555
678;29.66;0.652;3.37;40.675
680;29.78;0.652;3.38;40.795
682;29.9;0.654;3.39;40.915
684;30.02;0.654;3.4;41.035
686;30.14;0.656;3.409;41.155
688;30.26;0.656;3.419;41.275
690;30.38;0.656;3.429;41.395
692;30.5;0.658;3.439;41.515
694;30.62;0.658;3.45;41.635
696;30.74;0.658;3.459;41.755
698;30.88;0.66;3.469;41.875
700;31;0.66;3.479;41.995
702;31.12;0.66;3.489;42.115
704;31.24;0.662;3.499;42.235
706;31.36;0.662;3.509;42.355
708;31.48;0.662;3.519;42.475
710;31.6;0.664;3.529;42.595
712;31.68;0.664;3.536;42.715
714;31.82;0.664;3.546;42.835
716;31.96;0.666;3.556;42.955
718;32.08;0.666;3.566;43.075
720;32.2;0.666;3.576;43.195
722;32.34;0.666;3.586;43.315
724;32.46;0.668;3.596;43.435
726;32.58;0.668;3.606;43.555
728;32.7;0.668;3.616;43.675
730;32.82;0.67;3.626;43.795
732;32.94;0.67;3.636;43.915
734;33.08;0.67;3.646;44.035
736;33.2;0.672;3.656;44.155
738;33.32;0.672;3.666;44.275
740;33.44;0.672;3.676;44.395
742;33.56;0.672;3.686;44.515
744;33.68;0.674;3.696;44.635
746;33.82;0.674;3.706;44.755
748;33.94;0.674;3.716;44.875
750;34.06;0.676;3.726;44.995
752;34.18;0.676;3.736;45.115
754;34.32;0.678;3.746;45.235
756;34.44;0.678;3.756;45.355
758;34.56;0.678;3.766;45.475
760;34.7;0.678;3.776;45.595
762;34.82;0.68;3.786;45.715
764;34.94;0.68;3.796;45.835
766;35.06;0.682;3.806;45.955
768;35.18;0.682;3.816;46.075
770;35.3;0.682;3.826;46.195
772;35.42;0.682;3.836;46.315
774;35.56;0.684;3.846;46.435
776;35.68;0.684;3.856;46.555
778;35.8;0.684;3.866;46.675
780;35.92;0.686;3.876;46.795
782;36.06;0.686;3.886;46.915
784;36.18;0.688;3.896;47.035
786;36.3;0.688;3.906;47.155
788;36.42;0.688;3.916;47.275
790;36.56;0.688;3.926;47.395
792;36.68;0.69;3.936;47.515
794;36.8;0.69;3.946;47.635
796;36.94;0.69;3.956;47.755
798;37.06;0.692;3.966;47.875
800;37.18;0.692;3.976;47.995
802;37.3;0.692;3.986;48.115
804;37.42;0.694;3.996;48.235
806;37.54;0.694;4.006;48.355
808;37.66;0.694;4.016;48.475
810;37.8;0.696;4.025;48.595
812;37.92;0.696;4.035;48.715
814;38.06;0.696;4.045;48.835
816;38.18;0.698;4.055;48.955
818;38.3;0.698;4.065;49.075
820;38.44;0.7;4.075;49.195
822;38.56;0.7;4.085;49.315
824;38.68;0.7;4.095;49.435
826;38.8;0.702;4.105;49.555
828;38.94;0.702;4.115;49.675
830;39.06;0.702;4.125;49.795
832;39.18;0.702;4.135;49.915
834;39.32;0.704;4.145;50.035
836;39.44;0.704;4.155;50.155
838;39.56;0.704;4.165;50.275
840;39.7;0.706;4.175;50.395
842;39.82;0.706;4.185;50.515
844;39.94;0.706;4.195;50.635
846;40.08;0.708;4.205;50.755
848;40.2;0.708;4.215;50.875
850;40.32;0.708;4.225;50.995
852;40.44;0.71;4.235;51.115
854;40.58;0.71;4.245;51.235
856;40.7;0.712;4.255;51.355
858;40.84;0.712;4.265;51.475
860;40.96;0.712;4.275;51.595
862;41.08;0.712;4.285;51.715
864;41.22;0.714;4.295;51.835
866;41.34;0.714;4.305;51.955
868;41.46;0.714;4.315;52.075
870;41.6;0.716;4.325;52.195
872;41.72;0.716;4.335;52.315
874;41.84;0.718;4.345;52.435
876;41.98;0.718;4.355;52.555
878;42.1;0.718;4.365;52.675
880;42.22;0.72;4.375;52.795
882;42.36;0.72;4.385;52.915
884;42.48;0.72;4.395;53.035
886;42.6;0.722;4.405;53.155
888;42.74;0.722;4.415;53.275
890;42.86;0.722;4.425;53.395
892;43;0.722;4.435;53.515
894;43.12;0.724;4.445;53.635
896;43.24;0.726;4.455;53.755
898;43.38;0.726;4.465;53.875
900;43.5;0.726;4.475;53.995
902;43.64;0.728;4.485;54.115
904;43.76;0.728;4.495;54.235
906;43.88;0.728;4.505;54.355
908;44;0.728;4.515;54.475
910;44.14;0.73;4.525;54.595
912;44.26;0.73;4.534;54.715
914;44.38;0.732;4.544;54.835
916;44.52;0.732;4.554;54.955
918;44.64;0.732;4.564;55.075
920;44.76;0.734;4.574;55.195
922;44.9;0.734;4.584;55.315
924;45.02;0.736;4.595;55.435
926;45.14;0.736;4.605;55.555
928;45.28;0.736;4.614;55.675
930;45.4;0.736;4.624;55.795
932;45.52;0.738;4.634;55.915
934;45.64;0.738;4.644;56.035
936;45.78;0.74;4.654;56.155
938;45.9;0.74;4.664;56.275
940;46.04;0.74;4.674;56.395
942;46.16;0.742;4.684;56.515
944;46.28;0.742;4.694;56.635
946;46.42;0.744;4.704;56.755
948;46.54;0.744;4.714;56.875
950;46.66;0.746;4.724;56.995
952;46.46;0.744;4.735;57.115
954;46.26;0.742;4.744;57.235
956;46.56;0.744;4.754;57.355
958;46.8;0.746;4.764;57.475
960;47;0.746;4.774;57.595
962;47.14;0.748;4.784;57.715
964;47.28;0.748;4.794;57.835
966;47.4;0.75;4.804;57.955
968;47.52;0.75;4.814;58.075
970;47.64;0.752;4.824;58.195
972;47.76;0.754;4.834;58.315
974;47.88;0.754;4.844;58.435
976;48;0.756;4.854;58.555
978;48.1;0.756;4.864;58.675
980;48.22;0.758;4.874;58.795
982;48.32;0.758;4.884;58.915
984;48.44;0.76;4.894;59.035
986;48.54;0.762;4.904;59.155
988;48.64;0.764;4.914;59.275
990;48.76;0.766;4.924;59.395
992;48.86;0.768;4.934;59.515
994;48.96;0.77;4.944;59.635
996;49.04;0.772;4.954;59.755
998;49.14;0.774;4.964;59.875
1000;49.22;0.778;4.974;59.995
1002;49.28;0.78;4.984;60.115
1004;49.32;0.784;4.994;60.235
1006;49.36;0.79;5.004;60.355
1008;49.34;0.796;5.014;60.475
1010;49.28;0.802;5.024;60.595
1012;49.22;0.812;5.034;60.715
1014;49.18;0.82;5.044;60.835
1016;49.18;0.828;5.054;60.955
1018;49.16;0.838;5.064;61.075
1020;49.16;0.846;5.074;61.195
1022;49.16;0.854;5.084;61.315
1024;49.16;0.864;5.094;61.435
1026;49.16;0.872;5.104;61.555
1028;49.16;0.882;5.115;61.675
1030;49.16;0.89;5.125;61.795
1032;49.14;0.9;5.135;61.915
1034;49.14;0.908;5.145;62.035
1036;49.14;0.918;5.155;62.155
1038;49.14;0.926;5.165;62.275
1040;49.14;0.936;5.175;62.395
1042;49.14;0.944;5.185;62.515
1044;49.14;0.954;5.195;62.635
1046;49.14;0.962;5.205;62.755
1048;49.1;0.972;5.215;62.875
1050;49.1;0.982;5.225;62.995
1052;49.12;0.99;5.235;63.115
1054;49.16;1;5.245;63.235
1056;49.2;1.008;5.255;63.355
1058;49.22;1.016;5.265;63.475
1060;49.24;1.026;5.275;63.595
1062;49.28;1.034;5.285;63.715
1064;49.28;1.042;5.295;63.835
1066;49.32;1.05;5.305;63.955
1068;49.34;1.06;5.315;64.075
1070;49.36;1.068;5.325;64.195
1072;49.38;1.076;5.335;64.315
1074;49.4;1.084;5.345;64.435
1076;49.42;1.092;5.355;64.555
1078;49.44;1.102;5.365;64.675
1080;49.46;1.11;5.375;64.795
1082;49.48;1.118;5.385;64.915
1084;49.5;1.128;5.395;65.035
1086;49.5;1.134;5.405;65.155
1088;49.52;1.144;5.415;65.275
1090;49.54;1.152;5.425;65.395
1092;49.56;1.16;5.436;65.515
1094;49.58;1.168;5.446;65.635
1096;49.6;1.176;5.456;65.755
1098;49.62;1.184;5.466;65.875
1100;49.64;1.194;5.476;65.995
1102;49.66;1.202;5.486;66.115
1104;49.68;1.2112;5.496;66.235
1106;49.68;1.2212;5.506;66.355
1108;49.7;1.2312;5.516;66.475
1110;49.72;1.2412;5.526;66.595
1112;49.74;1.2512;5.536;66.715
1114;49.76;1.2612;5.546;66.835
1116;49.78;1.2712;5.556;66.955
1118;49.8;1.2812;5.566;67.075
1120;49.82;1.2912;5.576;67.195
1122;49.84;1.3012;5.586;67.315
1124;49.86;1.3112;5.596;67.435
1126;49.86;1.3212;5.606;67.555
1128;49.88;1.3312;5.616;67.675
1130;49.9;1.3412;5.626;67.795
1132;49.92;1.3512;5.636;67.915
1134;49.94;1.3612;5.646;68.035
1136;49.94;1.3712;5.656;68.155
1138;49.96;1.3812;5.666;68.275
1140;49.98;1.3912;5.676;68.395
1142;50;1.4012;5.686;68.515
1144;49.98;1.4087;5.694;68.635
1146;49.78;1.4087;5.694;68.755
1148;49.64;1.4087;5.694;68.875
1150;49.56;1.4087;5.694;68.995
1152;49.48;1.4087;5.694;69.115
1154;49.44;1.4087;5.694;69.235
1156;49.38;1.4087;5.694;69.355
1158;49.34;1.4087;5.694;69.475
1160;49.3;1.4087;5.694;69.595
1162;49.28;1.4087;5.694;69.715
1164;49.24;1.4087;5.694;69.835
1166;49.22;1.4087;5.694;69.955
1168;49.2;1.4087;5.694;70.075
1170;49.16;1.4099;5.695;70.195
1172;49.14;1.4099;5.695;70.315
1174;49.14;1.4099;5.695;70.435
1176;49.12;1.4099;5.695;70.555
1178;49.1;1.4099;5.695;70.675
1180;49.08;1.4099;5.695;70.795
1182;49.06;1.4099;5.695;70.915
1184;49.06;1.4099;5.695;71.035
1186;49.04;1.4099;5.695;71.155
1188;49.02;1.4099;5.695;71.275
1190;49.02;1.4099;5.695;71.395
1192;49;1.4099;5.695;71.515
1194;48.98;1.4099;5.695;71.635
1196;48.98;1.4099;5.695;71.755
1198;48.98;1.4099;5.695;71.875
1200;48.96;1.4099;5.695;71.995
1202;48.94;1.4099;5.695;72.115
1204;48.94;1.4099;5.695;72.235
1206;48.92;1.4099;5.695;72.355
1208;48.92;1.4099;5.695;72.475
1210;48.92;1.4099;5.695;72.595
1212;48.9;1.4099;5.695;72.715
1214;48.9;1.4099;5.695;72.835
1216;48.9;1.4099;5.695;72.955
1218;48.88;1.4099;5.695;73.075
1220;48.88;1.4099;5.695;73.195
1222;48.86;1.4099;5.695;73.315
1224;48.86;1.4099;5.695;73.435
1226;48.84;1.4099;5.695;73.555
1228;48.84;1.4099;5.695;73.675
1230;48.84;1.4099;5.695;73.795
1232;48.84;1.4099;5.695;73.915
1234;48.82;1.4099;5.695;74.035
1236;48.82;1.4099;5.695;74.155
1238;48.82;1.4099;5.695;74.275
1240;48.8;1.4099;5.695;74.395
1242;48.8;1.4099;5.695;74.515
1244;48.8;1.4099;5.695;74.635
1246;48.8;1.4099;5.695;74.755
1248;48.8;1.4099;5.695;74.875
1250;48.78;1.4099;5.695;74.995
1252;48.78;1.4099;5.695;75.115
1254;48.78;1.4099;5.695;75.235
1256;48.76;1.4099;5.695;75.355
1258;48.76;1.4099;5.695;75.475
1260;48.76;1.4099;5.695;75.595
1262;48.76;1.4099;5.695;75.715
1264;48.74;1.4099;5.695;75.835
1266;48.74;1.4099;5.695;75.955
1268;48.74;1.4099;5.695;76.075
1270;48.74;1.4099;5.695;76.195
1272;48.72;1.4099;5.695;76.315
1274;48.72;1.4099;5.695;76.435
1276;48.72;1.4099;5.695;76.555
1278;48.72;1.4099;5.695;76.675
1280;48.72;1.4099;5.695;76.795
1282;48.7;1.4099;5.695;76.915
1284;48.7;1.4099;5.695;77.035
1286;48.7;1.4099;5.695;77.155
1288;48.7;1.4099;5.695;77.275
1290;48.7;1.4099;5.695;77.395
1292;48.7;1.4099;5.695;77.515
1294;48.68;1.4099;5.695;77.635
1296;48.68;1.4099;5.695;77.755
1298;48.68;1.4099;5.695;77.875
1300;48.68;1.4099;5.695;77.995
1302;48.68;1.4099;5.695;78.115
1304;48.66;1.4099;5.695;78.235
1306;48.66;1.4099;5.695;78.355
1308;48.66;1.4099;5.695;78.475
1310;48.66;1.4099;5.695;78.595
1312;48.66;1.4099;5.695;78.715
1314;48.66;1.4099;5.695;78.835
1316;48.64;1.4099;5.695;78.955
1318;48.64;1.4099;5.695;79.075
1320;48.64;1.4099;5.695;79.195
1322;48.64;1.4099;5.695;79.315
1324;48.64;1.4099;5.695;79.435
1326;48.64;1.4099;5.695;79.555
1328;48.62;1.4099;5.695;79.675
1330;48.62;1.4099;5.695;79.795
1332;48.62;1.4099;5.695;79.915
1334;48.62;1.4099;5.695;80.035
1336;48.62;1.4099;5.695;80.155
1338;48.62;1.4099;5.695;80.275
1340;48.62;1.4099;5.695;80.395
1342;48.62;1.4099;5.695;80.515
1344;48.82;1.4174;5.702;80.635
1346;49.22;1.4274;5.713;80.755
1348;49.54;1.4374;5.722;80.875
1350;49.8;1.4474;5.733;80.995
1352;49.98;1.4574;5.742;81.115
1354;50.08;1.4674;5.753;81.235
1356;50.16;1.4774;5.762;81.355
1358;50.2;1.4874;5.773;81.475
1360;50.24;1.4974;5.782;81.595
1362;50.26;1.5074;5.793;81.715
1364;50.28;1.5174;5.802;81.835
1366;50.3;1.5274;5.812;81.955
1368;50.3;1.5374;5.822;82.075
1370;50.32;1.5474;5.832;82.195
1372;50.34;1.5574;5.842;82.315
1374;50.34;1.5674;5.852;82.435
1376;50.34;1.5774;5.862;82.555
1378;50.36;1.5874;5.872;82.675
1380;50.38;1.5974;5.882;82.795
1382;50.38;1.6087;5.894;82.915
1384;50.4;1.6187;5.904;83.035
1386;50.4;1.6287;5.914;83.155
1388;50.42;1.6387;5.924;83.275
1390;50.44;1.6487;5.934;83.395
1392;50.46;1.6587;5.944;83.515
1394;50.46;1.6687;5.954;83.635
1396;50.48;1.6787;5.964;83.755
1398;50.48;1.6887;5.974;83.875
1400;50.5;1.6987;5.984;83.995
1402;50.5;1.7087;5.994;84.115
1404;50.52;1.7187;6.004;84.235
1406;50.54;1.7287;6.014;84.355
1408;50.54;1.7387;6.024;84.475
1410;50.56;1.7487;6.034;84.595
1412;50.58;1.7587;6.044;84.715
1414;50.58;1.7687;6.054;84.835
1416;50.6;1.7799;6.065;84.955
1418;50.62;1.7899;6.075;85.075
1420;50.64;1.7999;6.085;85.195
1422;50.64;1.8099;6.095;85.315
1424;50.66;1.8199;6.105;85.435
1426;50.68;1.8299;6.115;85.555
1428;50.68;1.8399;6.125;85.675
1430;50.7;1.8499;6.135;85.795
1432;50.72;1.8599;6.145;85.915
1434;50.72;1.8687;6.154;86.035
1436;50.74;1.8787;6.164;86.155
1438;50.76;1.8887;6.174;86.275
1440;50.78;1.8987;6.184;86.395
1442;50.8;1.9087;6.194;86.515
1444;50.82;1.9187;6.204;86.635
1446;50.84;1.9287;6.214;86.755
1448;50.84;1.9387;6.224;86.875
1450;50.86;1.9487;6.234;86.995
1452;50.88;1.9599;6.245;87.115
1454;50.9;1.9699;6.255;87.235
1456;50.9;1.9799;6.265;87.355
1458;50.92;1.9899;6.275;87.475
1460;50.94;1.9999;6.285;87.595
1462;50.96;2.0099;6.295;87.715
1464;50.96;2.0199;6.305;87.835
1466;50.98;2.0299;6.315;87.955
1468;51;2.0399;6.325;88.075
1470;51.02;2.0499;6.335;88.195
1472;51.02;2.0599;6.345;88.315
1474;51.04;2.0699;6.355;88.435
1476;51.06;2.0799;6.365;88.555
1478;51.08;2.0899;6.375;88.675
1480;51.1;2.0999;6.385;88.795
1482;51.1;2.1099;6.395;88.915
1484;51.12;2.1199;6.405;89.035
1486;51.14;2.1299;6.415;89.155
1488;51.16;2.1399;6.425;89.275
1490;51.18;2.1499;6.435;89.395
1492;51.18;2.1599;6.445;89.515
1494;51.2;2.1699;6.455;89.635
1496;51.22;2.1799;6.465;89.755
1498;51.24;2.1899;6.475;89.875
1500;51.24;2.1999;6.485;89.995
1502;51.26;2.2099;6.495;90.115
1504;51.28;2.2199;6.505;90.235
1506;51.3;2.2299;6.515;90.355
1508;51.3;2.2399;6.525;90.475
1510;51.32;2.2512;6.536;90.595
1512;51.34;2.2612;6.546;90.715
1514;51.36;2.2712;6.556;90.835
1516;51.36;2.2812;6.566;90.955
1518;51.38;2.2912;6.576;91.075
1520;51.4;2.3012;6.586;91.195
1522;51.42;2.3112;6.596;91.315
1524;51.44;2.3212;6.606;91.435
1526;51.44;2.3312;6.616;91.555
1528;51.46;2.3412;6.626;91.675
1530;51.48;2.3512;6.636;91.795
1532;51.48;2.3612;6.646;91.915
1534;51.5;2.3712;6.656;92.035
1536;51.52;2.3812;6.666;92.155
1538;51.52;2.3912;6.676;92.275
1540;51.54;2.4012;6.686;92.395
1542;51.56;2.4112;6.696;92.515
1544;51.58;2.4212;6.706;92.635
1546;51.58;2.4312;6.716;92.755
1548;51.6;2.4412;6.726;92.875
1550;51.62;2.4512;6.736;92.995
1552;51.62;2.4612;6.746;93.115
1554;51.64;2.4712;6.756;93.235
1556;51.66;2.4812;6.766;93.355
1558;51.68;2.4912;6.776;93.475
1560;51.68;2.5024;6.787;93.595
1562;51.7;2.5124;6.797;93.715
1564;51.72;2.5224;6.807;93.835
1566;51.72;2.5324;6.817;93.955
1568;51.74;2.5424;6.827;94.075
1570;51.76;2.5524;6.837;94.195
1572;51.76;2.5624;6.847;94.315
1574;51.78;2.5724;6.858;94.435
1576;51.8;2.5824;6.867;94.555
1578;51.8;2.5924;6.878;94.675
1580;51.82;2.6024;6.887;94.795
1582;51.82;2.6124;6.898;94.915
1584;51.84;2.6224;6.907;95.035
1586;51.86;2.6324;6.918;95.155
1588;51.86;2.6424;6.927;95.275
1590;51.88;2.6524;6.938;95.395
1592;51.9;2.6624;6.947;95.515
1594;51.92;2.6724;6.957;95.635
1596;51.92;2.6824;6.967;95.755
1598;51.94;2.6924;6.977;95.875
1600;51.94;2.7024;6.987;95.995
1602;51.96;2.7124;6.997;96.115
1604;51.96;2.7224;7.007;96.235
1606;51.98;2.7324;7.017;96.355
1608;51.98;2.7424;7.027;96.475
1610;52;2.7524;7.037;96.595
1612;52.02;2.7624;7.047;96.715
1614;52.02;2.7724;7.057;96.835
1616;52.04;2.7824;7.067;96.955
1618;52.06;2.7924;7.077;97.075
1620;52.06;2.8024;7.087;97.195
1622;52.08;2.8124;7.097;97.315
1624;52.08;2.8224;7.108;97.435
1626;52.1;2.8324;7.117;97.555
1628;52.1;2.8424;7.128;97.675
1630;52.12;2.8524;7.137;97.795
1632;52.12;2.8624;7.148;97.915
1634;52.14;2.8724;7.157;98.035
1636;52.14;2.8824;7.168;98.155
1638;52.16;2.8924;7.177;98.275
1640;52.16;2.9024;7.188;98.395
1642;52.18;2.9124;7.197;98.515
1644;52.2;2.9224;7.207;98.635
1646;52.2;2.9324;7.217;98.755
1648;52.2;2.9424;7.227;98.875
1650;52.22;2.9524;7.237;98.995
1652;52.22;2.9624;7.247;99.115
1654;52.24;2.9724;7.257;99.235
1656;52.24;2.9824;7.267;99.355
1658;52.26;2.9924;7.277;99.475
1660;52.28;3.0024;7.287;99.595
1662;52.28;3.0124;7.297;99.715
1664;52.28;3.0224;7.307;99.835
1666;52.3;3.0337;7.319;99.955
1668;52.3;3.0437;7.329;100.075
1670;52.32;3.0537;7.339;100.195
1672;52.32;3.0637;7.349;100.315
1674;52.34;3.0737;7.359;100.435
1676;52.34;3.0837;7.369;100.555
1678;52.34;3.0937;7.379;100.675
1680;52.36;3.1024;7.387;100.795
1682;52.36;3.1124;7.398;100.915
1684;52.38;3.1224;7.407;101.035
1686;52.38;3.1324;7.418;101.155
1688;52.4;3.1424;7.427;101.275
1690;52.4;3.1524;7.438;101.395
1692;52.42;3.1624;7.447;101.515
1694;52.42;3.1737;7.459;101.635
1696;52.44;3.1837;7.469;101.755
1698;52.44;3.1937;7.479;101.875
1700;52.44;3.2037;7.489;101.995
1702;52.46;3.2137;7.499;102.115
1704;52.46;3.2237;7.509;102.235
1706;52.46;3.2337;7.519;102.355
1708;52.48;3.2437;7.529;102.475
1710;52.48;3.2537;7.539;102.595
1712;52.5;3.2637;7.549;102.715
1714;52.5;3.2737;7.559;102.835
1716;52.5;3.2837;7.569;102.955
1718;52.52;3.2937;7.579;103.075
1720;52.52;3.3037;7.589;103.195
1722;52.52;3.3137;7.599;103.315
1724;52.54;3.3237;7.609;103.435
1726;52.54;3.3337;7.619;103.555
1728;52.54;3.3437;7.629;103.675
1730;52.56;3.3537;7.639;103.795
1732;52.56;3.3637;7.649;103.915
1734;52.56;3.3737;7.659;104.035
1736;52.58;3.3837;7.669;104.155
1738;52.58;3.3937;7.679;104.275
1740;52.58;3.4037;7.689;104.395
1742;52.58;3.4137;7.699;104.515
1744;52.6;3.4237;7.709;104.635
1746;52.6;3.4337;7.719;104.755
1748;52.6;3.4437;7.729;104.875
1750;52.62;3.4537;7.739;104.995
1752;52.62;3.4637;7.749;105.115
1754;52.62;3.4737;7.759;105.235
1756;52.64;3.4837;7.769;105.355
1758;52.64;3.4937;7.779;105.475
1760;52.64;3.5037;7.789;105.595
1762;52.64;3.5137;7.799;105.715
1764;52.66;3.5237;7.809;105.835
1766;52.66;3.5337;7.819;105.955
1768;52.66;3.5437;7.829;106.075
1770;52.66;3.5537;7.839;106.195
1772;52.68;3.5637;7.849;106.315
1774;52.68;3.5749;7.86;106.435
1776;52.68;3.5849;7.87;106.555
1778;52.68;3.5949;7.88;106.675
1780;52.68;3.6049;7.89;106.795
1782;52.68;3.6149;7.9;106.915
1784;52.68;3.6249;7.91;107.035
1786;52.7;3.6349;7.92;107.155
1788;52.7;3.6449;7.93;107.275
1790;52.7;3.6549;7.94;107.395
1792;52.7;3.6649;7.95;107.515
1794;52.72;3.6749;7.96;107.635
1796;52.72;3.6849;7.97;107.755
1798;52.72;3.6949;7.98;107.875
1800;52.72;3.7049;7.99;107.995
1802;52.72;3.7149;8;108.115
1804;52.74;3.7249;8.01;108.235
1806;52.74;3.7349;8.02;108.355
1808;52.74;3.7449;8.03;108.475
1810;52.74;3.7549;8.04;108.595
1812;52.74;3.7649;8.05;108.715
1814;52.74;3.7749;8.06;108.835
1816;52.74;3.7849;8.07;108.955
1818;52.74;3.7949;8.08;109.075
1820;52.74;3.8049;8.09;109.195
1822;52.76;3.8149;8.1;109.315
1824;52.76;3.8249;8.11;109.435
1826;52.76;3.8349;8.12;109.555
1828;52.76;3.8449;8.13;109.675
1830;52.76;3.8549;8.14;109.795
1832;52.76;3.8649;8.15;109.915
1834;52.76;3.8749;8.16;110.035
1836;52.76;3.8849;8.17;110.155
1838;52.76;3.8949;8.18;110.275
1840;52.76;3.9049;8.19;110.395
1842;52.78;3.9162;8.201;110.515
1844;52.76;3.9262;8.211;110.635
1846;52.78;3.9362;8.221;110.755
1848;52.76;3.9449;8.23;110.875
1850;52.76;3.9549;8.24;110.995
1852;52.76;3.9649;8.25;111.115
1854;52.76;3.9749;8.26;111.235
1856;52.76;3.9849;8.27;111.355
1858;52.76;3.9949;8.28;111.475
1860;52.78;4.0049;8.29;111.595
1862;52.78;4.0149;8.3;111.715
1864;52.78;4.0249;8.31;111.835
1866;52.78;4.0349;8.32;111.955
1868;52.78;4.0449;8.33;112.075
1870;52.78;4.0562;8.341;112.195
1872;52.76;4.0649;8.35;112.315
1874;52.78;4.0749;8.36;112.435
1876;52.78;4.0862;8.371;112.555
1878;52.78;4.0962;8.381;112.675
1880;52.76;4.1062;8.391;112.795
1882;52.76;4.1162;8.401;112.915
1884;52.76;4.1262;8.411;113.035
1886;52.76;4.1362;8.421;113.155
1888;52.76;4.1462;8.431;113.275
1890;52.76;4.1562;8.441;113.395
1892;52.76;4.1662;8.451;113.515
1894;52.76;4.1762;8.461;113.635
1896;52.76;4.1862;8.471;113.755
1898;52.76;4.1962;8.481;113.875
1900;52.76;4.2062;8.491;113.995
1902;52.76;4.2162;8.501;114.115
1904;52.74;4.2262;8.511;114.235
1906;52.74;4.2362;8.521;114.355
1908;52.74;4.2462;8.531;114.475
1910;52.74;4.2562;8.541;114.595
1912;52.74;4.2662;8.551;114.715
1914;52.74;4.2762;8.561;114.835
1916;52.72;4.2862;8.571;114.955
1918;52.74;4.2962;8.581;115.075
1920;52.72;4.3062;8.591;115.195
1922;52.72;4.3162;8.601;115.315
1924;52.72;4.3262;8.611;115.435
1926;52.7;4.3362;8.621;115.555
1928;52.7;4.3462;8.631;115.675
1930;52.7;4.3562;8.641;115.795
1932;52.7;4.3662;8.651;115.915
1934;52.7;4.3762;8.661;116.035
1936;52.68;4.3862;8.671;116.155
1938;52.68;4.3962;8.681;116.275
1940;52.68;4.4062;8.691;116.395
1942;52.66;4.4162;8.701;116.515
1944;52.66;4.4262;8.711;116.635
1946;52.64;4.4374;8.722;116.755
1948;52.64;4.4474;8.733;116.875
1950;52.64;4.4574;8.742;116.995
1952;52.62;4.4674;8.752;117.115
1954;52.62;4.4774;8.762;117.235
1956;52.6;4.4874;8.773;117.355
1958;52.6;4.4974;8.783;117.475
1960;52.58;4.5074;8.792;117.595
1962;52.58;4.5174;8.802;117.715
1964;52.56;4.5274;8.812;117.835
1966;52.56;4.5374;8.823;117.955
1968;52.54;4.5474;8.832;118.075
1970;52.54;4.5574;8.842;118.195
1972;52.52;4.5674;8.852;118.315
1974;52.52;4.5774;8.863;118.435
1976;52.5;4.5874;8.872;118.555
1978;52.48;4.5974;8.882;118.675
1980;52.46;4.6074;8.892;118.795
1982;52.46;4.6174;8.903;118.915
1984;52.44;4.6274;8.912;119.035
1986;52.42;4.6374;8.922;119.155
1988;52.4;4.6474;8.932;119.275
1990;52.38;4.6574;8.943;119.395
1992;52.36;4.6674;8.952;119.515
1994;52.36;4.6774;8.962;119.635
1996;52.34;4.6874;8.972;119.755
1998;52.32;4.6974;8.983;119.875
2000;52.3;4.7074;8.992;119.995
2002;52.28;4.7174;9.002;120.115
2004;52.26;4.7274;9.012;120.235
2006;52.24;4.7387;9.024;120.355
2008;52.2;4.7487;9.034;120.475
2010;52.18;4.7587;9.044;120.595
2012;52.16;4.7687;9.054;120.715
2014;52.14;4.7787;9.064;120.835
2016;52.12;4.7887;9.074;120.955
2018;52.08;4.7987;9.084;121.075
2020;52.06;4.8087;9.094;121.195
2022;52.02;4.8187;9.104;121.315
2024;52;4.8287;9.114;121.435
2026;51.98;4.8387;9.124;121.555
2028;51.92;4.8499;9.135;121.675
2030;51.5;4.8599;9.145;121.795
2032;51.68;4.8699;9.155;121.915
2034;51.82;4.8799;9.165;122.035
2036;51.86;4.8899;9.175;122.155
2038;51.88;4.8999;9.185;122.275
2040;51.86;4.9099;9.195;122.395
2042;51.82;4.9199;9.205;122.515
2044;51.78;4.9299;9.215;122.635
2046;51.74;4.9399;9.225;122.755
2048;51.7;4.9499;9.235;122.875
2050;51.66;4.9599;9.245;122.995
2052;51.62;4.9699;9.255;123.115
2054;51.58;4.9799;9.265;123.235
2056;51.54;4.9899;9.275;123.355
2058;51.52;4.9999;9.285;123.475
2060;51.48;5.0099;9.295;123.595
2062;51.44;5.0199;9.305;123.715
2064;51.4;5.0299;9.315;123.835
2066;51.36;5.0399;9.325;123.955
2068;51.34;5.0499;9.335;124.075
2070;51.3;5.0612;9.346;124.195
2072;51.26;5.0712;9.356;124.315
2074;51.22;5.0812;9.366;124.435
2076;51.18;5.0912;9.376;124.555
2078;51.14;5.1012;9.386;124.675
2080;51.1;5.1112;9.396;124.795
2082;51.06;5.1212;9.406;124.915
2084;51;5.1299;9.415;125.035
2086;50.98;5.1399;9.425;125.155
2088;50.94;5.1499;9.435;125.275
2090;50.9;5.1599;9.445;125.395
2092;50.86;5.1712;9.456;125.515
2094;50.82;5.1812;9.466;125.635
2096;50.78;5.1912;9.476;125.755
2098;50.74;5.2012;9.486;125.875
2100;50.68;5.2112;9.496;125.995
2102;50.64;5.2212;9.506;126.115
2104;50.6;5.2312;9.516;126.235
2106;50.56;5.2412;9.526;126.355
2108;50.52;5.2512;9.536;126.475
2110;50.48;5.2612;9.546;126.595
2112;50.44;5.2712;9.556;126.715
2114;50.4;5.2812;9.566;126.835
2116;50.34;5.2912;9.576;126.955
2118;50.3;5.3012;9.586;127.075
2120;50.26;5.3112;9.596;127.195
2122;50.22;5.3212;9.606;127.315
2124;50.18;5.3312;9.616;127.435
2126;50.14;5.3412;9.626;127.555
2128;50.1;5.3512;9.636;127.675
2130;50.04;5.3612;9.646;127.795
2132;50;5.3712;9.656;127.915
2134;49.96;5.3812;9.666;128.035
2136;49.92;5.3912;9.676;128.155
2138;49.86;5.4012;9.686;128.275
2140;49.82;5.4112;9.696;128.395
2142;49.78;5.4212;9.706;128.515
2144;49.74;5.4312;9.716;128.635
2146;49.68;5.4412;9.726;128.755
2148;49.64;5.4512;9.736;128.875
2150;49.6;5.4612;9.746;128.995
2152;49.56;5.4712;9.756;129.115
2154;49.5;5.4812;9.766;129.235
2156;49.46;5.4912;9.776;129.355
2158;49.42;5.5012;9.786;129.475
2160;49.36;5.5112;9.796;129.595
2162;49.32;5.5212;9.806;129.715
2164;49.28;5.5312;9.816;129.835
2166;49.22;5.5412;9.826;129.955
2168;49.18;5.5512;9.836;130.075
2170;49.12;5.5612;9.846;130.195
2172;49.08;5.5724;9.858;130.315
2174;49.04;5.5824;9.867;130.435
2176;48.98;5.5924;9.877;130.555
2178;48.94;5.6024;9.887;130.675
2180;48.9;5.6124;9.898;130.795
2182;48.84;5.6212;9.906;130.915
2184;48.8;5.6312;9.916;131.035
2186;48.74;5.6424;9.927;131.155
2188;48.7;5.6524;9.938;131.275
2190;48.64;5.6624;9.948;131.395
2192;48.6;5.6724;9.957;131.515
2194;48.56;5.6824;9.967;131.635
2196;48.5;5.6924;9.977;131.755
2198;48.46;5.7024;9.988;131.875
2200;48.4;5.7124;9.997;131.995
2202;48.36;5.7224;10.007;132.115
2204;48.3;5.7324;10.017;132.235
2206;48.26;5.7424;10.028;132.355
2208;48.2;5.7524;10.037;132.475
2210;48.16;5.7624;10.047;132.595
2212;48.1;5.7724;10.057;132.715
2214;48.06;5.7824;10.068;132.835
2216;48;5.7924;10.077;132.955
2218;47.94;5.8024;10.087;133.075
2220;47.9;5.8124;10.097;133.195
2222;47.86;5.8224;10.108;133.315
2224;47.8;5.8324;10.117;133.435
2226;47.74;5.8437;10.129;133.555
2228;47.7;5.8537;10.139;133.675
2230;47.66;5.8637;10.149;133.795
2232;47.6;5.8737;10.159;133.915
2234;47.54;5.8837;10.169;134.035
2236;47.5;5.8937;10.179;134.155
2238;47.44;5.9037;10.189;134.275
2240;47.38;5.9137;10.199;134.395
2242;47.32;5.9237;10.209;134.515
2244;47.28;5.9337;10.219;134.635
2246;47.22;5.9437;10.229;134.755
2248;47.18;5.9537;10.239;134.875
2250;47.12;5.9637;10.249;134.995
2252;47.06;5.9737;10.259;135.115
2254;47.02;5.9837;10.269;135.235
2256;46.96;5.9937;10.279;135.355
2258;46.9;6.0037;10.289;135.475
2260;46.86;6.0137;10.299;135.595
2262;46.8;6.0237;10.309;135.715
2264;46.74;6.0337;10.319;135.835
2266;46.68;6.0437;10.329;135.955
2268;46.64;6.0537;10.339;136.075
2270;46.58;6.0637;10.349;136.195
2272;46.52;6.0737;10.359;136.315
2274;46.46;6.0837;10.369;136.435
2276;46.4;6.0937;10.379;136.555
2278;46.36;6.1037;10.389;136.675
2280;46.3;6.1137;10.399;136.795
2282;46.24;6.1237;10.409;136.915
2284;46.2;6.1337;10.419;137.035
2286;46.14;6.1437;10.429;137.155
2288;46.08;6.1537;10.439;137.275
2290;46.02;6.1649;10.45;137.395
2292;45.96;6.1749;10.46;137.515
2294;45.9;6.1849;10.47;137.635
2296;45.84;6.1949;10.48;137.755
2298;45.78;6.2049;10.49;137.875
2300;45.74;6.2149;10.5;137.995
2302;45.68;6.2249;10.51;138.115
2304;45.62;6.2349;10.52;138.235
2306;45.56;6.2449;10.53;138.355
2308;45.5;6.2549;10.54;138.475
2310;45.44;6.2649;10.55;138.595
2312;45.38;6.2749;10.56;138.715
2314;45.32;6.2849;10.57;138.835
2316;45.28;6.2949;10.58;138.955
2318;45.22;6.3049;10.59;139.075
2320;45.16;6.3149;10.6;139.195
2322;45.1;6.3249;10.61;139.315
2324;45.04;6.3349;10.62;139.435
2326;44.96;6.3449;10.63;139.555
2328;44.92;6.3549;10.64;139.675
2330;44.86;6.3649;10.65;139.795
2332;44.8;6.3749;10.66;139.915
2334;44.74;6.3849;10.67;140.035
2336;44.68;6.3949;10.68;140.155
2338;44.62;6.4049;10.69;140.275
2340;44.54;6.4162;10.701;140.395
2342;44.48;6.4262;10.711;140.515
2344;44.42;6.4362;10.721;140.635
2346;44.36;6.4462;10.731;140.755
2348;44.3;6.4562;10.741;140.875
2350;44.24;6.4662;10.751;140.995
2352;44.18;6.4762;10.761;141.115
2354;44.1;6.4862;10.771;141.235
2356;44.04;6.4962;10.781;141.355
2358;43.98;6.5062;10.791;141.475
2360;43.92;6.5162;10.801;141.595
2362;43.86;6.5262;10.811;141.715
2364;43.78;6.5362;10.821;141.835
2366;43.72;6.5462;10.831;141.955
2368;43.66;6.5562;10.841;142.075
2370;43.6;6.5662;10.851;142.195
2372;43.52;6.5762;10.861;142.315
2374;43.46;6.5874;10.872;142.435
2376;43.4;6.5974;10.882;142.555
2378;43.32;6.6074;10.892;142.675
2380;43.26;6.6174;10.903;142.795
2382;43.18;6.6274;10.912;142.915
2384;43.12;6.6374;10.922;143.035
2386;43.06;6.6474;10.932;143.155
2388;43;6.6574;10.943;143.275
2390;42.92;6.6674;10.952;143.395
2392;42.86;6.6774;10.962;143.515
2394;42.78;6.6874;10.972;143.635
2396;42.7;6.6974;10.983;143.755
2398;42.64;6.7074;10.992;143.875
2400;42.58;6.7174;11.002;143.995
2402;42.5;6.7274;11.012;144.115
2404;42.44;6.7374;11.023;144.235
2406;42.36;6.7474;11.032;144.355
2408;42.3;6.7574;11.042;144.475
2410;42.22;6.7687;11.054;144.595
2412;42.14;6.7787;11.064;144.715
2414;42.08;6.7887;11.074;144.835
2416;42;6.7987;11.084;144.955
2418;41.94;6.8087;11.094;145.075
2420;41.86;6.8187;11.104;145.195
2422;41.8;6.8287;11.114;145.315
2424;41.72;6.8387;11.124;145.435
2426;41.64;6.8462;11.131;145.555
2428;41.56;6.8574;11.142;145.675
2430;41.5;6.8674;11.153;145.795
2432;41.44;6.8774;11.162;145.915
2434;41.36;6.8874;11.172;146.035
2436;41.28;6.8974;11.182;146.155
2438;41.2;6.9074;11.193;146.275
2440;41.12;6.9174;11.202;146.395
2442;41.04;6.9274;11.212;146.515
2444;40.98;6.9374;11.222;146.635
2446;40.9;6.9474;11.233;146.755
2448;40.82;6.9574;11.242;146.875
2450;40.74;6.9674;11.252;146.995
2452;40.66;6.9774;11.262;147.115
2454;40.58;6.9874;11.273;147.235
2456;40.52;6.9974;11.282;147.355
2458;40.44;7.0074;11.292;147.475
2460;40.34;7.0174;11.302;147.595
2462;40.28;7.0274;11.312;147.715
2464;40.2;7.0374;11.322;147.835
2466;40.12;7.0487;11.334;147.955
2468;40.04;7.0587;11.344;148.075
2470;39.96;7.0687;11.354;148.195
2472;39.88;7.0787;11.364;148.315
2474;39.8;7.0887;11.374;148.435
2476;39.72;7.0987;11.384;148.555
2478;39.64;7.1087;11.394;148.675
2480;39.56;7.1187;11.404;148.795
2482;39.48;7.1287;11.414;148.915
2484;39.38;7.1387;11.424;149.035
2486;39.3;7.1487;11.434;149.155
2488;39.22;7.1587;11.444;149.275
2490;39.14;7.1687;11.454;149.395
2492;39.04;7.1787;11.464;149.515
2494;38.96;7.1887;11.474;149.635
2496;38.88;7.1987;11.484;149.755
2498;38.8;7.2087;11.494;149.875
2500;38.72;7.2187;11.504;149.995
2502;38.62;7.2287;11.514;150.115
2504;38.54;7.2387;11.524;150.235
2506;38.44;7.2487;11.534;150.355
2508;38.36;7.2587;11.544;150.475
2510;38.26;7.2687;11.554;150.595
2512;38.18;7.2799;11.565;150.715
2514;38.08;7.2887;11.574;150.835
2516;38;7.2987;11.584;150.955
2518;37.9;7.3099;11.595;151.075
2520;37.82;7.3199;11.605;151.195
2522;37.72;7.3299;11.615;151.315
2524;37.64;7.3399;11.625;151.435
2526;37.54;7.3499;11.635;151.555
2528;37.44;7.3599;11.645;151.675
2530;37.36;7.3699;11.655;151.795
2532;37.26;7.3799;11.665;151.915
2534;37.16;7.3899;11.675;152.035
2536;37.08;7.3999;11.685;152.155
2538;36.98;7.4099;11.695;152.275
2540;36.88;7.4199;11.705;152.395
2542;36.78;7.4299;11.715;152.515
2544;36.68;7.4399;11.725;152.635
2546;36.58;7.4499;11.735;152.755
2548;36.48;7.4599;11.745;152.875
2550;36.38;7.4699;11.755;152.995
2552;36.28;7.4799;11.765;153.115
2554;36.18;7.4899;11.775;153.235
2556;36.1;7.5012;11.786;153.355
2558;36;7.5112;11.796;153.475
2560;35.9;7.5212;11.806;153.595
2562;35.8;7.5312;11.816;153.715
2564;35.68;7.5412;11.826;153.835
2566;35.58;7.5512;11.836;153.955
2568;35.48;7.5612;11.846;154.075
2570;35.38;7.5712;11.856;154.195
2572;35.28;7.5812;11.866;154.315
2574;35.18;7.5912;11.876;154.435
2576;35.06;7.6012;11.886;154.555
2578;34.96;7.6112;11.896;154.675
2580;34.86;7.6212;11.906;154.795
2582;34.74;7.6312;11.916;154.915
2584;34.64;7.6412;11.926;155.035
2586;34.52;7.6512;11.936;155.155
2588;34.42;7.6612;11.946;155.275
2590;34.3;7.6712;11.956;155.395
2592;34.2;7.6812;11.966;155.515
2594;30.66;7.7087;11.994;155.635
2596;0.02;7.7037;11.989;155.755
2598;0;7.7112;11.996;155.875
2600;0;7.7212;12.006;155.995
2602;0;7.7312;12.016;156.115
2604;0.02;7.7412;12.026;156.235
2606;0.02;7.7512;12.036;156.355
2608;0;7.7612;12.046;156.475
2610;0.02;7.7712;12.056;156.595
2612;0.02;7.7812;12.066;156.715
2614;0.02;7.7912;12.076;156.835
2616;0.02;7.8012;12.086;156.955
2618;0.02;7.8112;12.096;157.075
2620;0.02;7.8212;12.106;157.195
2622;0.02;7.8312;12.116;157.315
2624;0.02;7.8412;12.126;157.435
2626;0.02;7.8512;12.136;157.555
2628;0.02;7.8599;12.145;157.675
2630;0.02;7.8699;12.155;157.795
2632;0.02;7.8799;12.165;157.915
2634;0;7.8899;12.175;158.035
2636;0.02;7.8999;12.185;158.155
2638;0.02;7.9099;12.195;158.275
2640;0;7.9199;12.205;158.395
2642;0.02;7.9299;12.215;158.515
2644;0;7.9399;12.225;158.635
2646;0;7.9499;12.235;158.755