File: Experimento 4/Resultados Experimento 4-20210423/arquivos csv/Polim20.csv
Order;Load(kN);Defor(mm);Stroke(mm);Time(s)
0;0;0;0;0
6;0.04;0.0962;0.096;0.355
12;0.06;0.2163;0.216;0.715
18;0.12;0.3375;0.338;1.075
24;0.18;0.4562;0.456;1.435
30;0.22;0.5775;0.577;1.795
36;0.26;0.6975;0.697;2.155
42;0.3;0.8175;0.817;2.515
48;0.32;0.9375;0.938;2.875
54;0.34;1.0575;1.058;3.235
60;0.36;1.1775;1.178;3.595
66;0.38;1.2975;1.298;3.955
72;0.4;1.4175;1.418;4.315
78;0.42;1.5375;1.538;4.675
84;0.42;1.6575;1.657;5.035
90;0.44;1.7775;1.777;5.395
96;0.46;1.8975;1.897;5.755
102;0.46;2.0187;2.019;6.115
108;0.46;2.1387;2.139;6.475
114;0.48;2.2587;2.259;6.835
120;0.48;2.3787;2.379;7.195
126;0.48;2.4987;2.499;7.555
132;0.48;2.6187;2.619;7.915
138;0.48;2.7387;2.739;8.275
144;0.48;2.8587;2.859;8.635
150;0.48;2.9787;2.979;8.995
156;0.48;3.1;3.1;9.355
162;0.48;3.22;3.22;9.715
168;0.48;3.3412;3.341;10.075
174;0.48;3.46;3.46;10.435
180;0.48;3.5812;3.581;10.795
186;0.48;3.7012;3.701;11.155
192;0.48;3.8225;3.822;11.515
198;0.48;3.9437;3.944;11.875
204;0.46;4.0637;4.064;12.235
210;0.46;4.185;4.185;12.595
216;0.46;4.3038;4.304;12.955
222;0.46;4.425;4.425;13.315
228;0.46;4.545;4.545;13.675
234;0.46;4.665;4.665;14.035
240;0.44;4.785;4.785;14.395
246;0.44;4.9062;4.906;14.755
252;0.44;5.0262;5.026;15.115
258;0.44;5.1462;5.146;15.475
264;0.44;5.2662;5.266;15.835
270;0.44;5.3875;5.387;16.195
276;0.42;5.5075;5.507;16.555
282;0.42;5.6275;5.628;16.915
288;0.42;5.7475;5.747;17.275
294;0.42;5.8675;5.867;17.635
300;0.42;5.9887;5.989;17.995
306;0.4;6.1087;6.109;18.355
312;0.4;6.2287;6.229;18.715
318;0.4;6.3487;6.349;19.075
324;0.4;6.4688;6.469;19.435
330;0.4;6.59;6.59;19.795
336;0.38;6.71;6.71;20.155
342;0.38;6.8312;6.831;20.515
348;0.38;6.9513;6.951;20.875
354;0.36;7.0725;7.072;21.235
360;0.36;7.1925;7.192;21.595
366;0.34;7.3137;7.314;21.955
372;0.34;7.435;7.435;22.315
378;0.32;7.555;7.555;22.675
384;0.32;7.6762;7.676;23.035
390;0.3;7.7962;7.796;23.395
396;0.3;7.9162;7.916;23.755
402;0.28;8.0375;8.037;24.115
408;0.28;8.1587;8.159;24.475
414;0.28;8.2787;8.279;24.835
420;0.28;8.4;8.4;25.195
426;0.26;8.52;8.52;25.555
432;0.26;8.6412;8.641;25.915
438;0.26;8.7612;8.761;26.275
444;0.26;8.8825;8.882;26.635
450;0.26;9.0025;9.002;26.995
456;0.26;9.1213;9.121;27.355
462;0.26;9.2425;9.242;27.715
468;0.26;9.3625;9.363;28.075
474;0.26;9.4825;9.483;28.435
480;0.26;9.6038;9.604;28.795
486;0.26;9.7238;9.724;29.155
492;0.26;9.845;9.845;29.515
498;0.26;9.965;9.965;29.875
504;0.26;10.0837;10.084;30.235
510;0.26;10.2037;10.204;30.595
516;0.26;10.325;10.325;30.955
522;0.26;10.445;10.445;31.315
528;0.26;10.5662;10.566;31.675
534;0.26;10.6862;10.686;32.035
540;0.26;10.8062;10.806;32.395
546;0.26;10.9262;10.926;32.755
552;0.26;11.0462;11.046;33.115
558;0.26;11.1675;11.167;33.475
564;0.26;11.2875;11.287;33.835
570;0.26;11.4087;11.409;34.195
576;0.26;11.5275;11.528;34.555
582;0.26;11.6487;11.649;34.915
588;0.26;11.77;11.77;35.275
594;0.26;11.89;11.89;35.635
600;0.26;12.0112;12.011;35.995
606;0.26;12.1312;12.131;36.355
612;0.26;12.2525;12.252;36.715
618;0.26;12.3737;12.374;37.075
624;0.26;12.4937;12.494;37.435
630;0.26;12.6137;12.614;37.795
636;0.26;12.735;12.735;38.155
642;0.26;12.855;12.855;38.515
648;0.26;12.975;12.975;38.875
654;0.26;13.0962;13.096;39.235
660;0.26;13.215;13.215;39.595
666;0.26;13.3362;13.336;39.955
672;0.26;13.4562;13.456;40.315
678;0.26;13.5763;13.576;40.675
684;0.26;13.6962;13.696;41.035
690;0.26;13.8162;13.816;41.395
696;0.26;13.9362;13.936;41.755
702;0.26;14.0562;14.056;42.115
708;0.26;14.1762;14.176;42.475
714;0.26;14.2962;14.296;42.835
720;0.26;14.4175;14.417;43.195
726;0.26;14.5375;14.537;43.555
732;0.26;14.6575;14.657;43.915
738;0.26;14.7775;14.777;44.275
744;0.26;14.8975;14.898;44.635
750;0.26;15.0175;15.017;44.995
756;0.26;15.1375;15.137;45.355
762;0.26;15.2575;15.257;45.715
768;0.26;15.3787;15.379;46.075
774;0.26;15.4987;15.499;46.435
780;0.26;15.62;15.62;46.795
786;0.26;15.74;15.74;47.155
792;0.26;15.8612;15.861;47.515
798;0.26;15.9812;15.981;47.875
804;0.26;16.1025;16.102;48.235
810;0.26;16.2225;16.222;48.595
816;0.26;16.3425;16.342;48.955
822;0.26;16.4637;16.464;49.315
828;0.26;16.585;16.585;49.675
834;0.26;16.705;16.705;50.035
840;0.26;16.8263;16.826;50.395
846;0.26;16.9462;16.946;50.755
852;0.26;17.0662;17.066;51.115
858;0.26;17.1875;17.188;51.475
864;0.26;17.3075;17.307;51.835
870;0.26;17.4287;17.429;52.195
876;0.26;17.5487;17.549;52.555
882;0.26;17.6687;17.669;52.915
888;0.26;17.79;17.79;53.275
894;0.26;17.91;17.91;53.635
900;0.26;18.03;18.03;53.995
906;0.26;18.15;18.15;54.355
912;0.26;18.27;18.27;54.715
918;0.26;18.3912;18.391;55.075
924;0.26;18.5112;18.511;55.435
930;0.26;18.6325;18.632;55.795
936;0.26;18.7525;18.753;56.155
942;0.26;18.8725;18.872;56.515
948;0.26;18.9937;18.994;56.875
954;0.26;19.1138;19.114;57.235
960;0.26;19.2337;19.234;57.595
966;0.26;19.3538;19.354;57.955
972;0.26;19.4725;19.472;58.315
978;0.26;19.5938;19.594;58.675
984;0.26;19.715;19.715;59.035
990;0.26;19.835;19.835;59.395
996;0.26;19.955;19.955;59.755
1002;0.26;20.0763;20.076;60.115
1008;0.26;20.1962;20.196;60.475
1014;0.26;20.3175;20.317;60.835
1020;0.26;20.4375;20.438;61.195
1026;0.26;20.5575;20.557;61.555
1032;0.26;20.6775;20.677;61.915
1038;0.26;20.7987;20.799;62.275
1044;0.26;20.9187;20.919;62.635
1050;0.26;21.0387;21.039;62.995
1056;0.26;21.16;21.16;63.355
1062;0.26;21.2787;21.279;63.715
1068;0.26;21.4;21.4;64.075
1074;0.26;21.52;21.52;64.435
1080;0.26;21.6412;21.641;64.795
1086;0.26;21.7612;21.761;65.155
1092;0.26;21.8813;21.881;65.515
1098;0.26;22.0012;22.001;65.875
1104;0.26;22.1213;22.121;66.235
1110;0.26;22.2412;22.241;66.595
1116;0.26;22.3612;22.361;66.955
1122;0.26;22.4812;22.481;67.315
1128;0.26;22.6012;22.601;67.675
1134;0.26;22.7225;22.722;68.035
1140;0.26;22.8412;22.841;68.395
1146;0.26;22.9625;22.962;68.755
1152;0.26;23.0825;23.082;69.115
1158;0.26;23.2025;23.202;69.475
1164;0.26;23.3225;23.323;69.835
1170;0.26;23.4425;23.442;70.195
1176;0.24;23.5625;23.562;70.555
1182;0.26;23.6838;23.684;70.915
1188;0.26;23.805;23.805;71.275
1194;0.26;23.925;23.925;71.635
1200;0.26;24.045;24.045;71.995
1206;0.24;24.1663;24.166;72.355
1212;0.26;24.285;24.285;72.715
1218;0.26;24.4062;24.406;73.075
1224;0.26;24.5262;24.526;73.435
1230;0.26;24.6475;24.647;73.795
1236;0.24;24.7675;24.767;74.155
1242;0.26;24.8888;24.889;74.515
1248;0.26;25.0087;25.009;74.875
1254;0.26;25.13;25.13;75.235
1260;0.26;25.2487;25.249;75.595
1266;0.26;25.37;25.37;75.955
1272;0.26;25.49;25.49;76.315
1278;0.26;25.61;25.61;76.675
1284;0.26;25.7312;25.731;77.035
1290;0.26;25.8512;25.851;77.395
1296;0.26;25.9712;25.971;77.755
1302;0.26;26.0925;26.092;78.115
1308;0.26;26.2125;26.212;78.475
1314;0.26;26.3325;26.332;78.835
1320;0.26;26.4525;26.452;79.195
1326;0.26;26.5725;26.573;79.555
1332;0.26;26.6937;26.694;79.915
1338;0.26;26.8137;26.814;80.275
1344;0.26;26.935;26.935;80.635
1350;0.24;27.055;27.055;80.995
1356;0.26;27.175;27.175;81.355
1362;0.26;27.2962;27.296;81.715
1368;0.26;27.4163;27.416;82.075
1374;0.26;27.5362;27.536;82.435
1380;0.26;27.6562;27.656;82.795
1386;0.26;27.7775;27.778;83.155
1392;0.26;27.8975;27.897;83.515
1398;0.26;28.0187;28.019;83.875
1404;0.26;28.1388;28.139;84.235
1410;0.26;28.26;28.26;84.595
1416;0.26;28.38;28.38;84.955
1422;0.26;28.5;28.5;85.315
1428;0.26;28.6213;28.621;85.675
1434;0.26;28.7412;28.741;86.035
1440;0.26;28.8625;28.862;86.395
1446;0.26;28.9837;28.984;86.755
1452;0.26;29.1038;29.104;87.115
1458;0.26;29.225;29.225;87.475
1464;0.26;29.345;29.345;87.835
1470;0.26;29.465;29.465;88.195
1476;0.26;29.585;29.585;88.555
1482;0.26;29.7062;29.706;88.915
1488;0.26;29.8263;29.826;89.275
1494;0.26;29.9462;29.946;89.635
1500;0.26;30.0662;30.066;89.995
1506;0.26;30.1875;30.188;90.355
1512;0.26;30.3062;30.306;90.715
1518;0.26;30.4262;30.426;91.075
1524;0.26;30.5462;30.546;91.435
1530;0.26;30.6675;30.667;91.795
1536;0.26;30.7875;30.787;92.155
1542;0.26;30.9062;30.906;92.515
1548;0.26;31.0275;31.028;92.875
1554;0.26;31.1475;31.147;93.235
1560;0.26;31.2675;31.267;93.595
1566;0.26;31.3888;31.389;93.955
1572;0.26;31.5087;31.509;94.315
1578;0.26;31.6275;31.627;94.675
1584;0.26;31.7487;31.749;95.035
1590;0.26;31.8687;31.869;95.395
1596;0.26;31.9887;31.989;95.755
1602;0.26;32.11;32.11;96.115
1608;0.26;32.23;32.23;96.475
1614;0.26;32.3512;32.351;96.835
1620;0.26;32.4712;32.471;97.195
1626;0.26;32.5912;32.591;97.555
1632;0.26;32.7113;32.711;97.915
1638;0.26;32.8325;32.833;98.275
1644;0.26;32.9512;32.951;98.635
1650;0.26;33.0725;33.072;98.995
1656;0.26;33.1937;33.194;99.355
1662;0.26;33.3137;33.314;99.715
1668;0.26;33.435;33.435;100.075
1674;0.24;33.555;33.555;100.435
1680;0.26;33.675;33.675;100.795
1686;0.26;33.795;33.795;101.155
1692;0.24;33.915;33.915;101.515
1698;0.24;34.0363;34.036;101.875
1704;0.26;34.1562;34.156;102.235
1710;0.26;34.2762;34.276;102.595
1716;0.26;34.3975;34.397;102.955
1722;0.26;34.5175;34.517;103.315
1728;0.24;34.6362;34.636;103.675
1734;0.24;34.7562;34.756;104.035
1740;0.26;34.8762;34.876;104.395
1746;0.26;34.9975;34.997;104.755
1752;0.24;35.1175;35.118;105.115
1758;0.26;35.2375;35.237;105.475
1764;0.26;35.3587;35.359;105.835
1770;0.26;35.4787;35.479;106.195
1776;0.26;35.5988;35.599;106.555
1782;0.26;35.7188;35.719;106.915
1788;0.26;35.84;35.84;107.275
1794;0.24;35.96;35.96;107.635
1800;0.24;36.0812;36.081;107.995
1806;0.26;36.2012;36.201;108.355
1812;0.24;36.3213;36.321;108.715
1818;0.24;36.4425;36.443;109.075
1824;0.24;36.5625;36.562;109.435
1830;0.26;36.6838;36.684;109.795
1836;0.26;36.8037;36.804;110.155
1842;0.26;36.9237;36.924;110.515
1848;0.26;37.045;37.045;110.875
1854;0.26;37.165;37.165;111.235
1860;0.24;37.2863;37.286;111.595
1866;0.26;37.4062;37.406;111.955
1872;0.26;37.5275;37.528;112.315
1878;0.26;37.6475;37.647;112.675
1884;0.24;37.7675;37.767;113.035
1890;0.26;37.8875;37.888;113.395
1896;0.24;38.0088;38.009;113.755
1902;0.26;38.1287;38.129;114.115
1908;0.26;38.2487;38.249;114.475
1914;0.26;38.37;38.37;114.835
1920;0.26;38.49;38.49;115.195
1926;0.26;38.61;38.61;115.555
1932;0.26;38.7313;38.731;115.915
1938;0.26;38.85;38.85;116.275
1944;0.26;38.97;38.97;116.635
1950;0.26;39.09;39.09;116.995
1956;0.26;39.2113;39.211;117.355
1962;0.24;39.33;39.33;117.715
1968;0.26;39.4512;39.451;118.075
1974;0.26;39.5713;39.571;118.435
1980;0.26;39.6925;39.692;118.795
1986;0.26;39.8125;39.812;119.155
1992;0.24;39.9325;39.932;119.515
1998;0.24;40.0525;40.052;119.875
2004;0.24;40.1725;40.173;120.235
2010;0.24;40.2938;40.294;120.595
2016;0.26;40.4125;40.412;120.955
2022;0.24;40.5337;40.534;121.315
2028;0.26;40.6537;40.654;121.675
2034;0.26;40.7738;40.774;122.035
2040;0.26;40.895;40.895;122.395
2046;0.24;41.015;41.015;122.755
2052;0.26;41.135;41.135;123.115
2058;0.26;41.2562;41.256;123.475
2064;0.26;41.3762;41.376;123.835
2070;0.26;41.4975;41.497;124.195
2076;0.26;41.6175;41.618;124.555
2082;0.26;41.7375;41.737;124.915
2088;0.26;41.8587;41.859;125.275
2094;0.24;41.9787;41.979;125.635
2100;0.26;42.0987;42.099;125.995
2106;0.26;42.22;42.22;126.355
2112;0.26;42.34;42.34;126.715
2118;0.26;42.46;42.46;127.075
2124;0.24;42.58;42.58;127.435
2130;0.24;42.7;42.7;127.795
2136;0.26;42.8213;42.821;128.155
2142;0.26;42.94;42.94;128.515
2148;0.24;43.0612;43.061;128.875
2154;0.26;43.1812;43.181;129.235
2160;0.24;43.3013;43.301;129.595
2166;0.26;43.4212;43.421;129.955
2172;0.26;43.5425;43.542;130.315
2178;0.26;43.6625;43.662;130.675
2184;0.26;43.7825;43.782;131.035
2190;0.26;43.9025;43.903;131.395
2196;0.26;44.0225;44.022;131.755
2202;0.26;44.1437;44.144;132.115
2208;0.26;44.2637;44.264;132.475
2214;0.26;44.3837;44.384;132.835
2220;0.26;44.505;44.505;133.195
2226;0.26;44.625;44.625;133.555
2232;0.26;44.745;44.745;133.915
2238;0.26;44.865;44.865;134.275
2244;0.26;44.9862;44.986;134.635
2250;0.26;45.1063;45.106;134.995
2256;0.26;45.2275;45.227;135.355
2262;0.26;45.3475;45.347;135.715
2268;0.26;45.4675;45.467;136.075
2274;0.26;45.5875;45.587;136.435
2280;0.26;45.7087;45.709;136.795
2286;0.26;45.83;45.83;137.155
2292;0.26;45.95;45.95;137.515
2298;0.26;46.07;46.07;137.875
2304;0.26;46.19;46.19;138.235
2310;0.26;46.3112;46.311;138.595
2316;0.26;46.4312;46.431;138.955
2322;0.26;46.5525;46.552;139.315
2328;0.26;46.6725;46.673;139.675
2334;0.26;46.7938;46.794;140.035
2340;0.26;46.9137;46.914;140.395
2346;0.24;47.0337;47.034;140.755
2352;0.26;47.155;47.155;141.115
2358;0.24;47.275;47.275;141.475
2364;0.26;47.395;47.395;141.835
2370;0.26;47.5163;47.516;142.195
2376;0.26;47.6362;47.636;142.555
2382;0.24;47.7575;47.757;142.915
2388;0.26;47.8775;47.877;143.275
2394;0.26;47.9987;47.999;143.635
2400;0.26;48.1187;48.119;143.995
2406;0.26;48.2388;48.239;144.355
2412;0.26;48.36;48.36;144.715
2418;0.26;48.48;48.48;145.075
2424;0.26;48.5987;48.599;145.435
2430;0.26;48.72;48.72;145.795
2436;0.26;48.8412;48.841;146.155
2442;0.26;48.9613;48.961;146.515
2448;0.26;49.0825;49.083;146.875
2454;0.26;49.2038;49.204;147.235
2460;0.26;49.3237;49.324;147.595
2466;0.26;49.445;49.445;147.955
2472;0.26;49.5637;49.564;148.315
2478;0.26;49.6838;49.684;148.675
2484;0.26;49.805;49.805;149.035
2490;0.26;49.925;49.925;149.395
2496;0.26;50.0462;50.046;149.755
2502;0.26;50.1662;50.166;150.115
2508;0.24;50.2875;50.287;150.475
2514;0.24;50.4075;50.407;150.835
2520;0.26;50.5275;50.528;151.195
2526;0.26;50.6488;50.649;151.555
2532;0.26;50.7687;50.769;151.915
2538;0.26;50.8887;50.889;152.275
2544;0.26;51.0087;51.009;152.635
2550;0.26;51.1287;51.129;152.995
2556;0.26;51.2487;51.249;153.355
2562;0.26;51.3687;51.369;153.715
2568;0.26;51.49;51.49;154.075
2574;0.26;51.6087;51.609;154.435
2580;0.26;51.73;51.73;154.795
2586;0.26;51.85;51.85;155.155
2592;0.24;51.97;51.97;155.515
2598;0.26;52.09;52.09;155.875
2604;0.26;52.2113;52.211;156.235
2610;0.26;52.3312;52.331;156.595
2616;0.26;52.4512;52.451;156.955
2622;0.26;52.5712;52.571;157.315
2628;0.26;52.6925;52.692;157.675
2634;0.26;52.8125;52.812;158.035
2640;0.26;52.9325;52.932;158.395
2646;0.26;53.0525;53.052;158.755
2652;0.26;53.1737;53.174;159.115
2658;0.26;53.2937;53.294;159.475
2664;0.26;53.4137;53.414;159.835
2670;0.26;53.5337;53.534;160.195
2676;0.26;53.6537;53.654;160.555
2682;0.26;53.775;53.775;160.915
2688;0.26;53.895;53.895;161.275
2694;0.26;54.0163;54.016;161.635
2700;0.26;54.1362;54.136;161.995
2706;0.26;54.2575;54.257;162.355
2712;0.26;54.3762;54.376;162.715
2718;0.26;54.4975;54.497;163.075
2724;0.26;54.6175;54.618;163.435
2730;0.26;54.7375;54.737;163.795
2736;0.26;54.8587;54.859;164.155
2742;0.26;54.9787;54.979;164.515
2748;0.26;55.0987;55.099;164.875
2754;0.26;55.22;55.22;165.235
2760;0.26;55.34;55.34;165.595
2766;0.26;55.46;55.46;165.955
2772;0.26;55.58;55.58;166.315
2778;0.26;55.7;55.7;166.675
2784;0.26;55.82;55.82;167.035
2790;0.26;55.94;55.94;167.395
2796;0.26;56.0612;56.061;167.755
2802;0.26;56.1812;56.181;168.115
2808;0.26;56.3025;56.302;168.475
2814;0.26;56.4225;56.423;168.835
2820;0.26;56.5437;56.544;169.195
2826;0.26;56.6637;56.664;169.555
2832;0.26;56.7837;56.784;169.915
2838;0.26;56.9037;56.904;170.275
2844;0.26;57.025;57.025;170.635
2850;0.26;57.145;57.145;170.995
2856;0.26;57.2663;57.266;171.355
2862;0.26;57.3862;57.386;171.715
2868;0.26;57.5062;57.506;172.075
2874;0.26;57.6275;57.627;172.435
2880;0.26;57.7475;57.747;172.795
2886;0.26;57.8687;57.869;173.155
2892;0.26;57.9888;57.989;173.515
2898;0.26;58.11;58.11;173.875
2904;0.26;58.23;58.23;174.235
2910;0.24;58.3512;58.351;174.595
2916;0.26;58.4712;58.471;174.955
2922;0.26;58.5925;58.592;175.315
2928;0.26;58.7125;58.712;175.675
2934;0.26;58.8325;58.833;176.035
2940;0.26;58.9525;58.952;176.395
2946;0.26;59.0737;59.074;176.755
2952;0.26;59.195;59.195;177.115
2958;0.26;59.3125;59.312;177.475
2964;0.26;59.4338;59.434;177.835
2970;0.26;59.5537;59.554;178.195
2976;0.26;59.6737;59.674;178.555
2982;0.26;59.795;59.795;178.915
2988;0.26;59.915;59.915;179.275
2994;0.26;60.035;60.035;179.635
3000;0.26;60.1562;60.156;179.995
3006;0.26;60.275;60.275;180.355
3012;0.26;60.395;60.395;180.715
3018;0.26;60.5162;60.516;181.075
3024;0.26;60.6362;60.636;181.435
3030;0.26;60.7562;60.756;181.795
3036;0.26;60.8762;60.876;182.155
3042;0.26;60.9963;60.996;182.515
3048;0.26;61.1175;61.118;182.875
3054;0.26;61.2388;61.239;183.235
3060;0.26;61.3575;61.357;183.595
3066;0.26;61.4787;61.479;183.955
3072;0.26;61.5987;61.599;184.315
3078;0.26;61.7188;61.719;184.675
3084;0.26;61.84;61.84;185.035
3090;0.26;61.96;61.96;185.395
3096;0.26;62.0812;62.081;185.755
3102;0.26;62.2012;62.201;186.115
3108;0.26;62.3212;62.321;186.475
3114;0.26;62.4425;62.442;186.835
3120;0.26;62.5612;62.561;187.195
3126;0.26;62.6825;62.682;187.555
3132;0.26;62.8025;62.802;187.915
3138;0.26;62.9225;62.922;188.275
3144;0.26;63.0437;63.044;188.635
3150;0.26;63.1625;63.162;188.995
3156;0.26;63.2837;63.284;189.355
3162;0.26;63.4037;63.404;189.715
3168;0.26;63.5238;63.524;190.075
3174;0.26;63.6437;63.644;190.435
3180;0.26;63.7637;63.764;190.795
3186;0.26;63.885;63.885;191.155
3192;0.26;64.005;64.005;191.515
3198;0.26;64.125;64.125;191.875
3204;0.26;64.245;64.245;192.235
3210;0.26;64.365;64.365;192.595
3216;0.26;64.4863;64.486;192.955
3222;0.26;64.6062;64.606;193.315
3228;0.26;64.7262;64.726;193.675
3234;0.26;64.8462;64.846;194.035
3240;0.26;64.9662;64.966;194.395
3246;0.26;65.0863;65.086;194.755
3252;0.26;65.2075;65.207;195.115
3258;0.26;65.3275;65.327;195.475
3264;0.26;65.4487;65.449;195.835
3270;0.26;65.5687;65.569;196.195
3276;0.26;65.6888;65.689;196.555
3282;0.26;65.81;65.81;196.915
3288;0.26;65.93;65.93;197.275
3294;0.26;66.05;66.05;197.635
3300;0.26;66.1712;66.171;197.995
3306;0.26;66.2913;66.291;198.355
3312;0.26;66.4125;66.412;198.715
3318;0.26;66.5337;66.534;199.075
3324;0.26;66.6537;66.654;199.435
3330;0.26;66.7738;66.774;199.795
3336;0.26;66.895;66.895;200.155
3342;0.26;67.015;67.015;200.515
3348;0.26;67.135;67.135;200.875
3354;0.26;67.2562;67.256;201.235
3360;0.26;67.3763;67.376;201.595
3366;0.26;67.4975;67.497;201.955
3372;0.26;67.6175;67.618;202.315
3378;0.26;67.7375;67.737;202.675
3384;0.26;67.8587;67.859;203.035
3390;0.26;67.9788;67.979;203.395
3396;0.26;68.0987;68.099;203.755
3402;0.26;68.2188;68.219;204.115
3408;0.26;68.34;68.34;204.475
3414;0.26;68.46;68.46;204.835
3420;0.26;68.5812;68.581;205.195
3426;0.26;68.7012;68.701;205.555
3432;0.26;68.8225;68.823;205.915
3438;0.26;68.9412;68.941;206.275
3444;0.26;69.0612;69.061;206.635
3450;0.26;69.1813;69.181;206.995
3456;0.26;69.3025;69.302;207.355
3462;0.26;69.4225;69.423;207.715
3468;0.26;69.5437;69.544;208.075
3474;0.26;69.665;69.665;208.435
3480;0.26;69.785;69.785;208.795
3486;0.26;69.9062;69.906;209.155
3492;0.26;70.0262;70.026;209.515
3498;0.26;70.145;70.145;209.875
3504;0.26;70.265;70.265;210.235
3510;0.26;70.385;70.385;210.595
3516;0.26;70.5062;70.506;210.955
3522;0.26;70.6275;70.627;211.315
3528;0.26;70.7475;70.747;211.675
3534;0.26;70.8675;70.868;212.035
3540;0.26;70.9875;70.987;212.395
3546;0.26;71.1075;71.107;212.755
3552;0.26;71.2275;71.228;213.115
3558;0.26;71.3475;71.347;213.475
3564;0.26;71.4675;71.467;213.835
3570;0.26;71.5887;71.589;214.195
3576;0.26;71.7087;71.709;214.555
3582;0.26;71.83;71.83;214.915
3588;0.26;71.95;71.95;215.275
3594;0.26;72.07;72.07;215.635
3600;0.26;72.19;72.19;215.995
3606;0.26;72.31;72.31;216.355
3612;0.26;72.43;72.43;216.715
3618;0.26;72.5512;72.551;217.075
3624;0.26;72.67;72.67;217.435
3630;0.26;72.7913;72.791;217.795
3636;0.26;72.9112;72.911;218.155
3642;0.26;73.0312;73.031;218.515
3648;0.26;73.1525;73.152;218.875
3654;0.26;73.2725;73.272;219.235
3660;0.26;73.3913;73.391;219.595
3666;0.26;73.51;73.51;219.955
3672;0.26;73.63;73.63;220.315
3678;0.26;73.75;73.75;220.675
3684;0.26;73.8712;73.871;221.035
3690;0.26;73.9925;73.993;221.395
3696;0.26;74.1125;74.112;221.755
3702;0.26;74.2325;74.232;222.115
3708;0.26;74.3525;74.353;222.475
3714;0.26;74.4725;74.472;222.835
3720;0.26;74.5938;74.594;223.195
3726;0.26;74.7137;74.714;223.555
3732;0.26;74.8337;74.834;223.915
3738;0.26;74.955;74.955;224.275
3744;0.26;75.075;75.075;224.635
3750;0.26;75.195;75.195;224.995
3756;0.26;75.315;75.315;225.355
3762;0.26;75.4362;75.436;225.715
3768;0.26;75.5563;75.556;226.075
3774;0.26;75.6762;75.676;226.435
3780;0.26;75.7962;75.796;226.795
3786;0.26;75.9162;75.916;227.155
3792;0.26;76.0362;76.036;227.515
3798;0.26;76.1575;76.158;227.875
3804;0.26;76.2775;76.277;228.235
3810;0.26;76.3975;76.397;228.595
3816;0.26;76.5175;76.518;228.955
3822;0.26;76.6375;76.637;229.315
3828;0.26;76.7588;76.759;229.675
3834;0.26;76.8787;76.879;230.035
3840;0.26;77;77;230.395
3846;0.26;77.12;77.12;230.755
3852;0.26;77.2412;77.241;231.115
3858;0.26;77.3613;77.361;231.475
3864;0.26;77.4812;77.481;231.835
3870;0.26;77.6012;77.601;232.195
3876;0.26;77.7225;77.722;232.555
3882;0.26;77.8425;77.842;232.915
3888;0.26;77.9637;77.964;233.275
3894;0.26;78.0837;78.084;233.635
3900;0.26;78.205;78.205;233.995
3906;0.26;78.325;78.325;234.355
3912;0.26;78.4463;78.446;234.715
3918;0.26;78.5662;78.566;235.075
3924;0.26;78.6862;78.686;235.435
3930;0.26;78.8075;78.807;235.795
3936;0.26;78.9275;78.927;236.155
3942;0.26;79.0475;79.048;236.515
3948;0.26;79.1687;79.169;236.875
3954;0.26;79.2875;79.287;237.235
3960;0.26;79.4087;79.409;237.595
3966;0.26;79.5287;79.529;237.955
3972;0.26;79.6488;79.649;238.315
3978;0.26;79.77;79.77;238.675
3984;0.26;79.89;79.89;239.035
3990;0.26;80.0112;80.011;239.395
3996;0.26;80.13;80.13;239.755
4002;0.26;80.2513;80.251;240.115
4008;0.26;80.3712;80.371;240.475
4014;0.26;80.4912;80.491;240.835
4020;0.26;80.6125;80.612;241.195
4026;0.26;80.7312;80.731;241.555
4032;0.26;80.8512;80.851;241.915
4038;0.26;80.9725;80.972;242.275
4044;0.26;81.0925;81.092;242.635
4050;0.26;81.2125;81.213;242.995
4056;0.26;81.3325;81.332;243.355
4062;0.26;81.4538;81.454;243.715
4068;0.26;81.5737;81.574;244.075
4074;0.26;81.6937;81.694;244.435
4080;0.26;81.8138;81.814;244.795
4086;0.26;81.9337;81.934;245.155
4092;0.26;82.0537;82.054;245.515
4098;0.26;82.175;82.175;245.875
4104;0.26;82.2962;82.296;246.235
4110;0.26;82.4162;82.416;246.595
4116;0.26;82.5375;82.537;246.955
4122;0.26;82.6562;82.656;247.315
4128;0.26;82.7762;82.776;247.675
4134;0.26;82.8975;82.897;248.035
4140;0.26;83.0175;83.018;248.395
4146;0.26;83.1387;83.139;248.755
4152;0.26;83.2588;83.259;249.115
4158;0.26;83.3787;83.379;249.475
4164;0.26;83.4987;83.499;249.835
4170;0.26;83.62;83.62;250.195
4176;0.26;83.7387;83.739;250.555
4182;0.26;83.86;83.86;250.915
4188;0.26;83.98;83.98;251.275
4194;0.26;84.1;84.1;251.635
4200;0.26;84.22;84.22;251.995
4206;0.26;84.3412;84.341;252.355
4212;0.26;84.4613;84.461;252.715
4218;0.26;84.5812;84.581;253.075
4224;0.26;84.7012;84.701;253.435
4230;0.26;84.8213;84.821;253.795
4236;0.26;84.9425;84.942;254.155
4242;0.26;85.0625;85.062;254.515
4248;0.26;85.1837;85.184;254.875
4254;0.26;85.3037;85.304;255.235
4260;0.26;85.4238;85.424;255.595
4266;0.26;85.545;85.545;255.955
4272;0.26;85.665;85.665;256.315
4278;0.26;85.7862;85.786;256.675
4284;0.26;85.9062;85.906;257.035
4290;0.26;86.0262;86.026;257.395
4296;0.26;86.1475;86.147;257.755
4302;0.26;86.2687;86.269;258.115
4308;0.26;86.3887;86.389;258.475
4314;0.26;86.51;86.51;258.835
4320;0.26;86.63;86.63;259.195
4326;0.26;86.7513;86.751;259.555
4332;0.26;86.8712;86.871;259.915
4338;0.26;86.9925;86.993;260.275
4344;0.26;87.1125;87.112;260.635
4350;0.26;87.2337;87.234;260.995
4356;0.26;87.3537;87.354;261.355
4362;0.26;87.475;87.475;261.715
4368;0.26;87.595;87.595;262.075
4374;0.26;87.715;87.715;262.435
4380;0.26;87.8363;87.836;262.795
4386;0.26;87.9562;87.956;263.155
4392;0.26;88.0762;88.076;263.515
4398;0.26;88.1975;88.197;263.875
4404;0.26;88.3175;88.317;264.235
4410;0.26;88.4388;88.439;264.595
4416;0.26;88.5587;88.559;264.955
4422;0.26;88.6787;88.679;265.315
4428;0.26;88.8;88.8;265.675
4434;0.26;88.92;88.92;266.035
4440;0.26;89.0387;89.039;266.395
4446;0.26;89.1587;89.159;266.755
4452;0.26;89.28;89.28;267.115
4458;0.26;89.4;89.4;267.475
4464;0.26;89.5212;89.521;267.835
4470;0.26;89.6425;89.642;268.195
4476;0.26;89.7625;89.762;268.555
4482;0.26;89.8825;89.882;268.915
4488;0.26;90.0037;90.004;269.275
4494;0.26;90.1225;90.122;269.635
4500;0.26;90.2425;90.243;269.995
4506;0.26;90.3637;90.364;270.355
4512;0.26;90.4837;90.484;270.715
4518;0.26;90.605;90.605;271.075
4524;0.26;90.725;90.725;271.435
4530;0.26;90.8462;90.846;271.795
4536;0.26;90.965;90.965;272.155
4542;0.26;91.085;91.085;272.515
4548;0.26;91.2062;91.206;272.875
4554;0.26;91.3262;91.326;273.235
4560;0.26;91.4463;91.446;273.595
4566;0.26;91.5662;91.566;273.955
4572;0.26;91.6875;91.688;274.315
4578;0.26;91.8075;91.807;274.675
4584;0.26;91.9275;91.927;275.035
4590;0.26;92.0487;92.049;275.395
4596;0.26;92.1687;92.169;275.755
4602;0.26;92.2875;92.287;276.115
4608;0.26;92.4087;92.409;276.475
4614;0.26;92.5287;92.529;276.835
4620;0.26;92.6488;92.649;277.195
4626;0.26;92.77;92.77;277.555
4632;0.26;92.89;92.89;277.915
4638;0.26;93.0088;93.009;278.275
4644;0.26;93.1287;93.129;278.635
4650;0.26;93.25;93.25;278.995
4656;0.26;93.37;93.37;279.355
4662;0.26;93.49;93.49;279.715
4668;0.26;93.6112;93.611;280.075
4674;0.26;93.7312;93.731;280.435
4680;0.26;93.8525;93.853;280.795
4686;0.26;93.9725;93.972;281.155
4692;0.26;94.0925;94.092;281.515
4698;0.26;94.2125;94.213;281.875
4704;0.26;94.3325;94.332;282.235
4710;0.26;94.4525;94.452;282.595
4716;0.26;94.5737;94.574;282.955
4722;0.26;94.6937;94.694;283.315
4728;0.26;94.8138;94.814;283.675
4734;0.26;94.935;94.935;284.035
4740;0.26;95.055;95.055;284.395
4746;0.26;95.1762;95.176;284.755
4752;0.26;95.2962;95.296;285.115
4758;0.26;95.4162;95.416;285.475
4764;0.26;95.5375;95.537;285.835
4770;0.26;95.6575;95.658;286.195
4776;0.26;95.7775;95.777;286.555
4782;0.26;95.8988;95.899;286.915
4788;0.26;96.0187;96.019;287.275
4794;0.26;96.1387;96.139;287.635
4800;0.26;96.26;96.26;287.995
4806;0.26;96.38;96.38;288.355
4812;0.26;96.5;96.5;288.715
4818;0.26;96.6212;96.621;289.075
4824;0.26;96.7412;96.741;289.435
4830;0.26;96.8625;96.862;289.795
4836;0.26;96.9825;96.982;290.155
4842;0.26;97.1025;97.103;290.515
4848;0.26;97.2225;97.222;290.875
4854;0.26;97.3425;97.342;291.235
4860;0.26;97.4625;97.463;291.595
4866;0.26;97.5837;97.584;291.955
4872;0.26;97.705;97.705;292.315
4878;0.26;97.825;97.825;292.675
4884;0.26;97.9463;97.946;293.035
4890;0.26;98.0662;98.066;293.395
4896;0.26;98.1862;98.186;293.755
4902;0.26;98.3063;98.306;294.115
4908;0.26;98.4275;98.427;294.475
4914;0.26;98.5487;98.549;294.835
4920;0.26;98.6675;98.667;295.195
4926;0.26;98.7887;98.789;295.555
4932;0.26;98.9087;98.909;295.915
4938;0.26;99.03;99.03;296.275
4944;0.26;99.15;99.15;296.635
4950;0.26;99.2712;99.271;296.995
4956;0.26;99.3913;99.391;297.355
4962;0.26;99.5112;99.511;297.715
4968;0.26;99.6312;99.631;298.075
4974;0.26;99.7513;99.751;298.435
4980;0.26;99.8725;99.872;298.795
4986;0.26;99.9938;99.994;299.155
4992;0.26;100.1137;100.114;299.515
4998;0.26;100.2325;100.232;299.875
5004;0.26;100.3525;100.353;300.235
5010;0.26;100.4725;100.472;300.595
5016;0.26;100.5938;100.594;300.955
5022;0.26;100.7137;100.714;301.315
5028;0.26;100.8325;100.832;301.675
5034;0.26;100.9538;100.954;302.035
5040;0.26;101.0737;101.074;302.395
5046;0.26;101.1937;101.194;302.755
5052;0.26;101.3138;101.314;303.115
5058;0.26;101.4337;101.434;303.475
5064;0.26;101.555;101.555;303.835
5070;0.26;101.675;101.675;304.195
5076;0.26;101.795;101.795;304.555
5082;0.26;101.915;101.915;304.915
5088;0.26;102.0362;102.036;305.275
5094;0.26;102.1562;102.156;305.635
5100;0.26;102.2762;102.276;305.995
5106;0.26;102.3962;102.396;306.355
5112;0.26;102.5163;102.516;306.715
5118;0.26;102.6375;102.637;307.075
5124;0.26;102.7575;102.757;307.435
5130;0.26;102.8787;102.879;307.795
5136;0.26;102.9987;102.999;308.155
5142;0.26;103.1187;103.119;308.515
5148;0.26;103.2387;103.239;308.875
5154;0.26;103.36;103.36;309.235
5160;0.26;103.48;103.48;309.595
5166;0.26;103.6;103.6;309.955
5172;0.26;103.7212;103.721;310.315
5178;0.26;103.8412;103.841;310.675
5184;0.26;103.9625;103.962;311.035
5190;0.26;104.0825;104.082;311.395
5196;0.26;104.2025;104.202;311.755
5202;0.26;104.3225;104.322;312.115
5208;0.26;104.4425;104.442;312.475
5214;0.26;104.5638;104.564;312.835
5220;0.26;104.6837;104.684;313.195
5226;0.26;104.8037;104.804;313.555
5232;0.26;104.925;104.925;313.915
5238;0.28;105.045;105.045;314.275
5244;0.28;105.165;105.165;314.635
5250;0.26;105.285;105.285;314.995
5256;0.26;105.405;105.405;315.355
5262;0.26;105.525;105.525;315.715
5268;0.28;105.645;105.645;316.075
5274;0.28;105.765;105.765;316.435
5280;0.26;105.8862;105.886;316.795
5286;0.28;106.0075;106.007;317.155
5292;0.28;106.1275;106.127;317.515
5298;0.28;106.2475;106.247;317.875
5304;0.28;106.3687;106.369;318.235
5310;0.28;106.4887;106.489;318.595
5316;0.28;106.6087;106.609;318.955
5322;0.28;106.73;106.73;319.315
5328;0.28;106.85;106.85;319.675
5334;0.28;106.9712;106.971;320.035
5340;0.28;107.0912;107.091;320.395
5346;0.28;107.2125;107.212;320.755
5352;0.28;107.3325;107.332;321.115
5358;0.28;107.4538;107.454;321.475
5364;0.28;107.5737;107.574;321.835
5370;0.28;107.695;107.695;322.195
5376;0.28;107.815;107.815;322.555
5382;0.28;107.9362;107.936;322.915
5388;0.28;108.0575;108.057;323.275
5394;0.28;108.1775;108.177;323.635
5400;0.28;108.2975;108.298;323.995
5406;0.28;108.4175;108.417;324.355
5412;0.28;108.5375;108.537;324.715
5418;0.28;108.6587;108.659;325.075
5424;0.28;108.7787;108.779;325.435
5430;0.28;108.8988;108.899;325.795
5436;0.28;109.02;109.02;326.155
5442;0.28;109.14;109.14;326.515
5448;0.28;109.26;109.26;326.875
5454;0.28;109.38;109.38;327.235
5460;0.28;109.4987;109.499;327.595
5466;0.28;109.6187;109.619;327.955
5472;0.28;109.7387;109.739;328.315
5478;0.28;109.8587;109.859;328.675
5484;0.28;109.98;109.98;329.035
5490;0.28;110.1;110.1;329.395
5496;0.28;110.2212;110.221;329.755
5502;0.28;110.3412;110.341;330.115
5508;0.28;110.4625;110.462;330.475
5514;0.28;110.5825;110.582;330.835
5520;0.28;110.7025;110.702;331.195
5526;0.28;110.8237;110.824;331.555
5532;0.28;110.9437;110.944;331.915
5538;0.28;111.0638;111.064;332.275
5544;0.28;111.1837;111.184;332.635
5550;0.28;111.305;111.305;332.995
5556;0.28;111.425;111.425;333.355
5562;0.28;111.5462;111.546;333.715
5568;0.28;111.6662;111.666;334.075
5574;0.28;111.7862;111.786;334.435
5580;0.28;111.9062;111.906;334.795
5586;0.28;112.0262;112.026;335.155
5592;0.28;112.1475;112.147;335.515
5598;0.28;112.2687;112.269;335.875
5604;0.28;112.3887;112.389;336.235
5610;0.28;112.5088;112.509;336.595
5616;0.28;112.6287;112.629;336.955
5622;0.28;112.7487;112.749;337.315
5628;0.28;112.8687;112.869;337.675
5634;0.28;112.99;112.99;338.035
5640;0.28;113.1087;113.109;338.395
5646;0.28;113.2287;113.229;338.755
5652;0.28;113.35;113.35;339.115
5658;0.28;113.4688;113.469;339.475
5664;0.28;113.5887;113.589;339.835
5670;0.28;113.7087;113.709;340.195
5676;0.28;113.8288;113.829;340.555
5682;0.28;113.9487;113.949;340.915
5688;0.28;114.07;114.07;341.275
5694;0.28;114.1888;114.189;341.635
5700;0.28;114.31;114.31;341.995
5706;0.28;114.43;114.43;342.355
5712;0.28;114.55;114.55;342.715
5718;0.28;114.6712;114.671;343.075
5724;0.28;114.7912;114.791;343.435
5730;0.28;114.9112;114.911;343.795
5736;0.3;115.0312;115.031;344.155
5742;0.28;115.1525;115.152;344.515
5748;0.28;115.2725;115.272;344.875
5754;0.3;115.3937;115.394;345.235
5760;0.3;115.5137;115.514;345.595
5766;0.3;115.6338;115.634;345.955
5772;0.3;115.755;115.755;346.315
5778;0.3;115.875;115.875;346.675
5784;0.28;115.995;115.995;347.035
5790;0.3;116.1162;116.116;347.395
5796;0.3;116.2362;116.236;347.755
5802;0.28;116.3575;116.357;348.115
5808;0.3;116.4775;116.478;348.475
5814;0.3;116.5987;116.599;348.835
5820;0.3;116.7188;116.719;349.195
5826;0.3;116.8387;116.839;349.555
5832;0.3;116.96;116.96;349.915
5838;0.3;117.08;117.08;350.275
5844;0.3;117.2012;117.201;350.635
5850;0.3;117.3213;117.321;350.995
5856;0.3;117.4412;117.441;351.355
5862;0.3;117.5612;117.561;351.715
5868;0.3;117.6825;117.682;352.075
5874;0.3;117.8025;117.802;352.435
5880;0.3;117.9225;117.923;352.795
5886;0.3;118.0425;118.042;353.155
5892;0.3;118.1625;118.162;353.515
5898;0.3;118.2837;118.284;353.875
5904;0.3;118.4037;118.404;354.235
5910;0.3;118.5238;118.524;354.595
5916;0.3;118.645;118.645;354.955
5922;0.3;118.765;118.765;355.315
5928;0.3;118.8862;118.886;355.675
5934;0.3;119.0062;119.006;356.035
5940;0.3;119.1262;119.126;356.395
5946;0.3;119.2475;119.247;356.755
5952;0.3;119.3675;119.368;357.115
5958;0.3;119.4875;119.487;357.475
5964;0.3;119.6087;119.609;357.835
5970;0.3;119.7287;119.729;358.195
5976;0.3;119.85;119.85;358.555
5982;0.3;119.97;119.97;358.915
5988;0.3;120.0887;120.089;359.275
5994;0.3;120.2087;120.209;359.635
6000;0.3;120.33;120.33;359.995
6006;0.3;120.4512;120.451;360.355
6012;0.3;120.5713;120.571;360.715
6018;0.3;120.6925;120.692;361.075
6024;0.3;120.8125;120.812;361.435
6030;0.3;120.9325;120.932;361.795
6036;0.3;121.0525;121.052;362.155
6042;0.3;121.1725;121.173;362.515
6048;0.3;121.2925;121.292;362.875
6054;0.3;121.4125;121.412;363.235
6060;0.3;121.5325;121.532;363.595
6066;0.3;121.6537;121.654;363.955
6072;0.3;121.7738;121.774;364.315
6078;0.3;121.8937;121.894;364.675
6084;0.3;122.0137;122.014;365.035
6090;0.3;122.1338;122.134;365.395
6096;0.32;122.2537;122.254;365.755
6102;0.3;122.3737;122.374;366.115
6108;0.3;122.495;122.495;366.475
6114;0.32;122.6137;122.614;366.835
6120;0.3;122.735;122.735;367.195
6126;0.3;122.855;122.855;367.555
6132;0.32;122.9762;122.976;367.915
6138;0.32;123.0962;123.096;368.275
6144;0.32;123.2162;123.216;368.635
6150;0.32;123.3363;123.336;368.995
6156;0.32;123.4575;123.457;369.355
6162;0.32;123.5775;123.577;369.715
6168;0.32;123.6987;123.699;370.075
6174;0.32;123.8187;123.819;370.435
6180;0.32;123.94;123.94;370.795
6186;0.32;124.0612;124.061;371.155
6192;0.32;124.1812;124.181;371.515
6198;0.32;124.3025;124.302;371.875
6204;0.32;124.4225;124.423;372.235
6210;0.32;124.5425;124.542;372.595
6216;0.32;124.6625;124.662;372.955
6222;0.32;124.7837;124.784;373.315
6228;0.32;124.9037;124.904;373.675
6234;0.32;125.025;125.025;374.035
6240;0.32;125.145;125.145;374.395
6246;0.32;125.265;125.265;374.755
6252;0.32;125.385;125.385;375.115
6258;0.32;125.5062;125.506;375.475
6264;0.3;125.6262;125.626;375.835
6270;0.3;125.7462;125.746;376.195
6276;0.3;125.8662;125.866;376.555
6282;0.3;125.9875;125.987;376.915
6288;0.3;126.1075;126.107;377.275
6294;0.3;126.2275;126.228;377.635
6300;0.3;126.3487;126.349;377.995
6306;0.3;126.4688;126.469;378.355
6312;0.3;126.5887;126.589;378.715
6318;0.3;126.71;126.71;379.075
6324;0.3;126.83;126.83;379.435
6330;0.3;126.9512;126.951;379.795
6336;0.28;127.0725;127.072;380.155
6342;0.3;127.1925;127.192;380.515
6348;0.28;127.3125;127.312;380.875
6354;0.28;127.4337;127.434;381.235
6360;0.28;127.5537;127.554;381.595
6366;0.28;127.675;127.675;381.955
6372;0.28;127.795;127.795;382.315
6378;0.28;127.915;127.915;382.675
6384;0.28;128.0362;128.036;383.035
6390;0.3;128.1562;128.156;383.395
6396;0.28;128.2775;128.277;383.755
6402;0.28;128.3975;128.397;384.115
6408;0.28;128.5188;128.519;384.475
6414;0.28;128.6387;128.639;384.835
6420;0.28;128.76;128.76;385.195
6426;0.28;128.88;128.88;385.555
6432;0.3;129.0013;129.001;385.915
6438;0.28;129.1225;129.122;386.275
6444;0.3;129.2425;129.242;386.635
6450;0.28;129.3613;129.361;386.995
6456;0.3;129.4825;129.482;387.355
6462;0.28;129.6025;129.602;387.715
6468;0.3;129.7225;129.723;388.075
6474;0.28;129.8425;129.842;388.435
6480;0.3;129.9625;129.962;388.795
6486;0.28;130.0825;130.083;389.155
6492;0.28;130.2025;130.202;389.515
6498;0.28;130.3225;130.322;389.875
6504;0.28;130.4413;130.441;390.235
6510;0.28;130.5612;130.561;390.595
6516;0.28;130.6825;130.682;390.955
6522;0.28;130.8025;130.802;391.315
6528;0.3;130.9225;130.923;391.675
6534;0.28;131.0437;131.044;392.035
6540;0.28;131.1637;131.164;392.395
6546;0.28;131.285;131.285;392.755
6552;0.28;131.405;131.405;393.115
6558;0.28;131.5237;131.524;393.475
6564;0.28;131.645;131.645;393.835
6570;0.28;131.765;131.765;394.195
6576;0.28;131.885;131.885;394.555
6582;0.28;132.0062;132.006;394.915
6588;0.28;132.1275;132.128;395.275
6594;0.28;132.2475;132.247;395.635
6600;0.28;132.3687;132.369;395.995
6606;0.3;132.4875;132.488;396.355
6612;0.28;132.6087;132.609;396.715
6618;0.3;132.7287;132.729;397.075
6624;0.3;132.8487;132.849;397.435
6630;0.3;132.97;132.97;397.795
6636;0.28;133.0887;133.089;398.155
6642;0.3;133.21;133.21;398.515
6648;0.3;133.33;133.33;398.875
6654;0.3;133.4512;133.451;399.235
6660;0.28;133.5712;133.571;399.595
6666;0.3;133.6913;133.691;399.955
6672;0.3;133.8112;133.811;400.315
6678;0.3;133.9325;133.932;400.675
6684;0.3;134.0513;134.051;401.035
6690;0.3;134.1712;134.171;401.395
6696;0.3;134.2925;134.292;401.755
6702;0.3;134.4125;134.412;402.115
6708;0.3;134.5325;134.533;402.475
6714;0.3;134.6525;134.652;402.835
6720;0.3;134.7725;134.772;403.195
6726;0.3;134.8925;134.893;403.555
6732;0.3;135.0125;135.012;403.915
6738;0.28;135.1337;135.134;404.275
6744;0.3;135.2538;135.254;404.635
6750;0.3;135.375;135.375;404.995
6756;0.3;135.495;135.495;405.355
6762;0.3;135.615;135.615;405.715
6768;0.3;135.7363;135.736;406.075
6774;0.3;135.8562;135.856;406.435
6780;0.3;135.9762;135.976;406.795
6786;0.3;136.0975;136.098;407.155
6792;0.3;136.2188;136.219;407.515
6798;0.3;136.3387;136.339;407.875
6804;0.3;136.46;136.46;408.235
6810;0.3;136.58;136.58;408.595
6816;0.3;136.7012;136.701;408.955
6822;0.3;136.8225;136.822;409.315
6828;0.3;136.9425;136.942;409.675
6834;0.3;137.0625;137.062;410.035
6840;0.3;137.1825;137.182;410.395
6846;0.3;137.3037;137.304;410.755
6852;0.3;137.4238;137.424;411.115
6858;0.3;137.5437;137.544;411.475
6864;0.3;137.665;137.665;411.835
6870;0.3;137.785;137.785;412.195
6876;0.3;137.905;137.905;412.555
6882;0.3;138.0262;138.026;412.915
6888;0.3;138.1462;138.146;413.275
6894;0.3;138.2663;138.266;413.635
6900;0.3;138.3862;138.386;413.995
6906;0.3;138.5062;138.506;414.355
6912;0.3;138.6263;138.626;414.715
6918;0.3;138.7475;138.747;415.075
6924;0.3;138.8675;138.867;415.435
6930;0.3;138.9875;138.988;415.795
6936;0.3;139.1075;139.107;416.155
6942;0.3;139.2275;139.227;416.515
6948;0.3;139.3487;139.349;416.875
6954;0.3;139.4688;139.469;417.235
6960;0.3;139.5875;139.587;417.595
6966;0.3;139.7075;139.708;417.955
6972;0.3;139.8288;139.829;418.315
6978;0.3;139.9487;139.949;418.675
6984;0.3;140.0687;140.069;419.035
6990;0.3;140.19;140.19;419.395
6996;0.3;140.3112;140.311;419.755
7002;0.3;140.4312;140.431;420.115
7008;0.3;140.5525;140.552;420.475
7014;0.3;140.6725;140.673;420.835
7020;0.3;140.7937;140.794;421.195
7026;0.3;140.9125;140.912;421.555
7032;0.3;141.0338;141.034;421.915
7038;0.3;141.1537;141.154;422.275
7044;0.3;141.275;141.275;422.635
7050;0.3;141.395;141.395;422.995
7056;0.3;141.515;141.515;423.355
7062;0.3;141.6362;141.636;423.715
7068;0.3;141.7562;141.756;424.075
7074;0.3;141.8763;141.876;424.435
7080;0.3;141.9962;141.996;424.795
7086;0.3;142.1175;142.117;425.155
7092;0.3;142.2375;142.238;425.515
7098;0.3;142.3562;142.356;425.875
7104;0.3;142.4775;142.477;426.235
7110;0.3;142.5975;142.598;426.595
7116;0.3;142.7175;142.717;426.955
7122;0.3;142.8387;142.839;427.315
7128;0.3;142.9587;142.959;427.675
7134;0.3;143.0775;143.077;428.035
7140;0.3;143.1975;143.197;428.395
7146;0.3;143.3175;143.317;428.755
7152;0.3;143.4388;143.439;429.115
7158;0.3;143.5587;143.559;429.475
7164;0.3;143.6787;143.679;429.835
7170;0.3;143.8;143.8;430.195
7176;0.3;143.92;143.92;430.555
7182;0.3;144.04;144.04;430.915
7188;0.3;144.16;144.16;431.275
7194;0.3;144.28;144.28;431.635
7200;0.3;144.4012;144.401;431.995
7206;0.3;144.5212;144.521;432.355
7212;0.3;144.6425;144.643;432.715
7218;0.3;144.7625;144.762;433.075
7224;0.3;144.8837;144.884;433.435
7230;0.3;145.0038;145.004;433.795
7236;0.3;145.1237;145.124;434.155
7242;0.3;145.2437;145.244;434.515
7248;0.3;145.365;145.365;434.875
7254;0.3;145.4863;145.486;435.235
7260;0.3;145.6062;145.606;435.595
7266;0.3;145.7275;145.727;435.955
7272;0.3;145.8475;145.848;436.315
7278;0.3;145.9675;145.967;436.675
7284;0.3;146.0887;146.089;437.035
7290;0.3;146.2087;146.209;437.395
7296;0.3;146.3288;146.329;437.755
7302;0.3;146.45;146.45;438.115
7308;0.3;146.57;146.57;438.475
7314;0.3;146.69;146.69;438.835
7320;0.3;146.81;146.81;439.195
7326;0.3;146.9312;146.931;439.555
7332;0.3;147.0513;147.051;439.915
7338;0.32;147.1712;147.171;440.275
7344;0.3;147.2912;147.291;440.635
7350;0.3;147.4125;147.412;440.995
7356;0.3;147.5312;147.531;441.355
7362;0.3;147.6512;147.651;441.715
7368;0.3;147.7725;147.772;442.075
7374;0.32;147.8925;147.893;442.435
7380;0.32;148.0137;148.014;442.795
7386;0.32;148.1337;148.134;443.155
7392;0.32;148.2513;148.251;443.515
7398;0.32;148.3725;148.372;443.875
7404;0.32;148.4925;148.492;444.235
7410;0.32;148.6138;148.614;444.595
7416;0.32;148.7337;148.734;444.955
7422;0.32;148.855;148.855;445.315
7428;0.32;148.975;148.975;445.675
7434;0.32;149.0963;149.096;446.035
7440;0.32;149.2162;149.216;446.395
7446;0.32;149.3375;149.337;446.755
7452;0.32;149.4575;149.458;447.115
7458;0.32;149.5788;149.579;447.475
7464;0.32;149.6987;149.699;447.835
7470;0.32;149.82;149.82;448.195
7476;0.32;149.94;149.94;448.555
7482;0.32;150.0587;150.059;448.915
7488;0.32;150.18;150.18;449.275
7494;0.32;150.3;150.3;449.635
7500;0.32;150.42;150.42;449.995
7506;0.32;150.54;150.54;450.355
7512;0.32;150.66;150.66;450.715
7518;0.32;150.78;150.78;451.075
7524;0.32;150.9;150.9;451.435
7530;0.32;151.02;151.02;451.795
7536;0.32;151.14;151.14;452.155
7542;0.32;151.26;151.26;452.515
7548;0.32;151.38;151.38;452.875
7554;0.32;151.5013;151.501;453.235
7560;0.32;151.62;151.62;453.595
7566;0.32;151.74;151.74;453.955
7572;0.32;151.86;151.86;454.315
7578;0.32;151.98;151.98;454.675
7584;0.32;152.1012;152.101;455.035
7590;0.32;152.2213;152.221;455.395
7596;0.32;152.3412;152.341;455.755
7602;0.32;152.4612;152.461;456.115
7608;0.32;152.5825;152.582;456.475
7614;0.32;152.7025;152.702;456.835
7620;0.32;152.8237;152.824;457.195
7626;0.32;152.9425;152.942;457.555
7632;0.32;153.0638;153.064;457.915
7638;0.32;153.1837;153.184;458.275
7644;0.32;153.3037;153.304;458.635
7650;0.32;153.4238;153.424;458.995
7656;0.32;153.545;153.545;459.355
7662;0.32;153.665;153.665;459.715
7668;0.32;153.785;153.785;460.075
7674;0.32;153.9062;153.906;460.435
7680;0.32;154.0262;154.026;460.795
7686;0.32;154.1475;154.147;461.155
7692;0.32;154.2663;154.266;461.515
7698;0.32;154.3875;154.387;461.875
7704;0.32;154.5075;154.507;462.235
7710;0.32;154.6275;154.628;462.595
7716;0.32;154.7487;154.749;462.955
7722;0.32;154.8687;154.869;463.315
7728;0.32;154.9887;154.989;463.675
7734;0.32;155.11;155.11;464.035
7740;0.32;155.23;155.23;464.395
7746;0.32;155.3487;155.349;464.755
7752;0.32;155.47;155.47;465.115
7758;0.32;155.59;155.59;465.475
7764;0.32;155.71;155.71;465.835
7770;0.32;155.83;155.83;466.195
7776;0.32;155.95;155.95;466.555
7782;0.32;156.0712;156.071;466.915
7788;0.32;156.1913;156.191;467.275
7794;0.32;156.3112;156.311;467.635
7800;0.32;156.4325;156.432;467.995
7806;0.32;156.5525;156.552;468.355
7812;0.32;156.6725;156.673;468.715
7818;0.32;156.7937;156.794;469.075
7824;0.32;156.9137;156.914;469.435
7830;0.32;157.035;157.035;469.795
7836;0.32;157.1562;157.156;470.155
7842;0.32;157.2762;157.276;470.515
7848;0.32;157.3975;157.397;470.875
7854;0.32;157.5188;157.519;471.235
7860;0.3;157.6387;157.639;471.595
7866;0.3;157.76;157.76;471.955
7872;0.3;157.88;157.88;472.315
7878;0.3;158.0013;158.001;472.675
7884;0.3;158.1212;158.121;473.035
7890;0.3;158.2412;158.241;473.395
7896;0.3;158.3625;158.363;473.755
7902;0.3;158.4825;158.482;474.115
7908;0.3;158.6037;158.604;474.475
7914;0.3;158.7225;158.723;474.835
7920;0.3;158.8438;158.844;475.195
7926;0.3;158.9637;158.964;475.555
7932;0.3;159.0837;159.084;475.915
7938;0.3;159.205;159.205;476.275
7944;0.3;159.325;159.325;476.635
7950;0.3;159.445;159.445;476.995
7956;0.3;159.5638;159.564;477.355
7962;0.3;159.6837;159.684;477.715
7968;0.3;159.8037;159.804;478.075
7974;0.3;159.9238;159.924;478.435
7980;0.3;160.045;160.045;478.795
7986;0.3;160.165;160.165;479.155
7992;0.3;160.2838;160.284;479.515
7998;0.28;160.405;160.405;479.875
8004;0.28;160.525;160.525;480.235
8010;0.28;160.645;160.645;480.595
8016;0.28;160.7663;160.766;480.955
8022;0.28;160.8862;160.886;481.315
8028;0.28;161.0075;161.007;481.675
8034;0.28;161.1288;161.129;482.035
8040;0.28;161.2487;161.249;482.395
8046;0.26;161.37;161.37;482.755
8052;0.26;161.49;161.49;483.115
8058;0.26;161.61;161.61;483.475
8064;0.26;161.7312;161.731;483.835
8070;0.24;161.8512;161.851;484.195
8076;0.24;161.9725;161.973;484.555
8082;0.24;162.0938;162.094;484.915
8088;0.24;162.2137;162.214;485.275
8094;0.24;162.3337;162.334;485.635
8100;0.24;162.455;162.455;485.995
8106;0.24;162.575;162.575;486.355
8112;0.24;162.695;162.695;486.715
8118;0.24;162.815;162.815;487.075
8124;0.22;162.935;162.935;487.435
8130;0.22;163.055;163.055;487.795
8136;0.22;163.1762;163.176;488.155
8142;0.22;163.2962;163.296;488.515
8148;0.22;163.4162;163.416;488.875
8154;0.22;163.5375;163.537;489.235
8160;0.22;163.6575;163.658;489.595
8166;0.22;163.7762;163.776;489.955
8172;0.22;163.8962;163.896;490.315
8178;0.22;164.0163;164.016;490.675
8184;0.22;164.1375;164.137;491.035
8190;0.22;164.2575;164.257;491.395
8196;0.22;164.3788;164.379;491.755
8202;0.22;164.4987;164.499;492.115
8208;0.22;164.6187;164.619;492.475
8214;0.22;164.74;164.74;492.835
8220;0.22;164.86;164.86;493.195
8226;0.22;164.98;164.98;493.555
8232;0.22;165.1;165.1;493.915
8238;0.22;165.2213;165.221;494.275
8244;0.22;165.3412;165.341;494.635
8250;0.22;165.4625;165.462;494.995
8256;0.22;165.5837;165.584;495.355
8262;0.22;165.7038;165.704;495.715
8268;0.22;165.825;165.825;496.075
8274;0.22;165.945;165.945;496.435
8280;0.22;166.065;166.065;496.795
8286;0.22;166.1862;166.186;497.155
8292;0.22;166.3062;166.306;497.515
8298;0.22;166.4275;166.427;497.875
8304;0.22;166.5488;166.549;498.235
8310;0.2;166.6687;166.669;498.595
8316;0.22;166.79;166.79;498.955
8322;0.22;166.91;166.91;499.315
8328;0.22;167.03;167.03;499.675
8334;0.2;167.1512;167.151;500.035
8340;0.2;167.2712;167.271;500.395
8346;0.2;167.3913;167.391;500.755
8352;0.22;167.5125;167.512;501.115
8358;0.22;167.6325;167.632;501.475
8364;0.2;167.7525;167.753;501.835
8370;0.22;167.8725;167.872;502.195
8376;0.22;167.9925;167.992;502.555
8382;0.22;168.1113;168.111;502.915
8388;0.22;168.2325;168.232;503.275
8394;0.2;168.3525;168.352;503.635
8400;0.22;168.4725;168.473;503.995
8406;0.22;168.5938;168.594;504.355
8412;0.22;168.7137;168.714;504.715
8418;0.22;168.8337;168.834;505.075
8424;0.22;168.9538;168.954;505.435
8430;0.2;169.075;169.075;505.795
8436;0.2;169.195;169.195;506.155
8442;0.22;169.315;169.315;506.515
8448;0.2;169.4362;169.436;506.875
8454;0.2;169.5575;169.557;507.235
8460;0.2;169.6775;169.677;507.595
8466;0.2;169.7975;169.798;507.955
8472;0.2;169.9187;169.919;508.315
8478;0.2;170.0387;170.039;508.675
8484;0.2;170.16;170.16;509.035
8490;0.2;170.28;170.28;509.395
8496;0.2;170.3987;170.399;509.755
8502;0.2;170.52;170.52;510.115
8508;0.2;170.6413;170.641;510.475
8514;0.2;170.7612;170.761;510.835
8520;0.2;170.8812;170.881;511.195
8526;0.2;171.0025;171.003;511.555
8532;0.2;171.1212;171.121;511.915
8538;0.2;171.2412;171.241;512.275
8544;0.2;171.3625;171.363;512.635
8550;0.2;171.4825;171.482;512.995
8556;0.2;171.6025;171.602;513.355
8562;0.2;171.7237;171.724;513.715
8568;0.2;171.8425;171.842;514.075
8574;0.2;171.9625;171.962;514.435
8580;0.18;172.0825;172.082;514.795
8586;0.2;172.2025;172.202;515.155
8592;0.2;172.3225;172.322;515.515
8598;0.18;172.4437;172.444;515.875
8604;0.18;172.5638;172.564;516.235
8610;0.2;172.6837;172.684;516.595
8616;0.18;172.8037;172.804;516.955
8622;0.2;172.9238;172.924;517.315
8628;0.2;173.0437;173.044;517.675
8634;0.18;173.165;173.165;518.035
8640;0.18;173.285;173.285;518.395
8646;0.18;173.4037;173.404;518.755
8652;0.18;173.525;173.525;519.115
8658;0.18;173.6462;173.646;519.475
8664;0.18;173.7663;173.766;519.835
8670;0.18;173.8875;173.887;520.195
8676;0.18;174.0075;174.007;520.555
8682;0.16;174.1288;174.129;520.915
8688;0.16;174.25;174.25;521.275
8694;0.16;174.37;174.37;521.635
8700;0.16;174.49;174.49;521.995
8706;0.16;174.6113;174.611;522.355
8712;0.14;174.7312;174.731;522.715
8718;0.14;174.8512;174.851;523.075
8724;0.14;174.9725;174.973;523.435
8730;0.14;175.0925;175.092;523.795
8736;0.14;175.2125;175.212;524.155
8742;0.14;175.3325;175.332;524.515
8748;0.14;175.4525;175.452;524.875
8754;0.14;175.5737;175.574;525.235
8760;0.14;175.6937;175.694;525.595
8766;0.14;175.8138;175.814;525.955
8772;0.14;175.935;175.935;526.315
8778;0.14;176.055;176.055;526.675
8784;0.14;176.175;176.175;527.035
8790;0.14;176.295;176.295;527.395
8796;0.14;176.415;176.415;527.755
8802;0.12;176.535;176.535;528.115
8808;0.12;176.655;176.655;528.475
8814;0.12;176.775;176.775;528.835
8820;0.04;176.8962;176.896;529.195
8826;0.04;177.0163;177.016;529.555
8832;0.04;177.1375;177.137;529.915
8838;0.04;177.2575;177.257;530.275
8844;0.04;177.3775;177.378;530.635
8850;0.04;177.4987;177.499;530.995
8856;0.04;177.6187;177.619;531.355
8862;0.04;177.74;177.74;531.715
8868;0.04;177.86;177.86;532.075
8874;0.04;177.9812;177.981;532.435
8880;0.04;178.1012;178.101;532.795
8886;0.04;178.2225;178.222;533.155
8892;0.04;178.3425;178.342;533.515
8898;0.04;178.4637;178.464;533.875
8904;0.04;178.5837;178.584;534.235
8910;0.04;178.705;178.705;534.595
8916;0.04;178.8262;178.826;534.955
8922;0.04;178.9475;178.947;535.315
8928;0.04;179.0662;179.066;535.675
8934;0.04;179.1875;179.188;536.035
8940;0.04;179.3075;179.307;536.395
8944;0.04;179.3862;179.386;536.635