File: Experimento 4/Resultados Experimento 4-20210423/arquivos txt/AluminioEnvelhecido.txt
0
Diameter:	   8.10
   1.00
Area:	  51.5300
GaugeLength:	  50.00
2009-1-1
al envelhecido
001
DataNumber:	2600
index	Load(kN)	Defor(mm)	Stroke(mm)	Time(s)
    0	  0.0000	  0.0000	   0.000	   0.000
    3	  0.0000	  0.0000	   0.000	   0.175
    6	  0.0600	  0.0020	   0.014	   0.355
    9	  0.1600	  0.0040	   0.029	   0.535
   12	  0.1800	  0.0040	   0.044	   0.715
   15	  0.1800	  0.0060	   0.059	   0.895
   18	  0.1800	  0.0040	   0.074	   1.075
   21	  0.2200	  0.0060	   0.089	   1.255
   24	  0.3200	  0.0060	   0.104	   1.435
   27	  0.4600	  0.0080	   0.119	   1.615
   30	  0.6000	  0.0100	   0.134	   1.795
   33	  0.7600	  0.0120	   0.149	   1.975
   36	  0.8800	  0.0140	   0.164	   2.155
   39	  0.9800	  0.0160	   0.179	   2.335
   42	  1.1000	  0.0180	   0.194	   2.515
   45	  1.2200	  0.0200	   0.209	   2.695
   48	  1.3400	  0.0200	   0.224	   2.875
   51	  1.4400	  0.0220	   0.239	   3.055
   54	  1.5600	  0.0240	   0.254	   3.235
   57	  1.6600	  0.0240	   0.269	   3.415
   60	  1.7600	  0.0260	   0.282	   3.595
   63	  1.8600	  0.0280	   0.299	   3.775
   66	  1.9400	  0.0280	   0.314	   3.955
   69	  2.0200	  0.0300	   0.329	   4.135
   72	  2.1000	  0.0300	   0.343	   4.315
   75	  2.1800	  0.0300	   0.357	   4.495
   78	  2.2400	  0.0320	   0.373	   4.675
   81	  2.3200	  0.0320	   0.387	   4.855
   84	  2.4000	  0.0340	   0.403	   5.035
   87	  2.4800	  0.0340	   0.417	   5.215
   90	  2.5400	  0.0340	   0.433	   5.395
   93	  2.6000	  0.0340	   0.447	   5.575
   96	  2.6800	  0.0340	   0.462	   5.755
   99	  2.7400	  0.0340	   0.477	   5.935
  102	  2.8000	  0.0340	   0.492	   6.115
  105	  2.8800	  0.0340	   0.507	   6.295
  108	  2.9400	  0.0340	   0.522	   6.475
  111	  3.0000	  0.0360	   0.537	   6.655
  114	  3.0600	  0.0360	   0.553	   6.835
  117	  3.1200	  0.0360	   0.567	   7.015
  120	  3.1800	  0.0360	   0.582	   7.195
  123	  3.2600	  0.0380	   0.597	   7.375
  126	  3.3000	  0.0380	   0.613	   7.555
  129	  3.3600	  0.0380	   0.627	   7.735
  132	  3.4200	  0.0380	   0.642	   7.915
  135	  3.4800	  0.0400	   0.657	   8.095
  138	  3.5200	  0.0400	   0.673	   8.275
  141	  3.5800	  0.0400	   0.686	   8.455
  144	  3.6400	  0.0420	   0.701	   8.635
  147	  3.7000	  0.0420	   0.716	   8.815
  150	  3.7600	  0.0420	   0.731	   8.995
  153	  3.8200	  0.0420	   0.746	   9.175
  156	  3.8600	  0.0420	   0.761	   9.355
  159	  3.9200	  0.0440	   0.776	   9.535
  162	  3.9800	  0.0440	   0.791	   9.715
  165	  4.0400	  0.0440	   0.806	   9.895
  168	  4.1000	  0.0460	   0.821	  10.075
  171	  4.1600	  0.0460	   0.836	  10.255
  174	  4.2200	  0.0460	   0.851	  10.435
  177	  4.2800	  0.0480	   0.866	  10.615
  180	  4.3400	  0.0480	   0.881	  10.795
  183	  4.4000	  0.0480	   0.896	  10.975
  186	  4.4600	  0.0480	   0.911	  11.155
  189	  4.5000	  0.0500	   0.926	  11.335
  192	  4.5600	  0.0500	   0.941	  11.515
  195	  4.6200	  0.0500	   0.956	  11.695
  198	  4.6800	  0.0500	   0.971	  11.875
  201	  4.7400	  0.0520	   0.986	  12.055
  204	  4.8000	  0.0520	   1.001	  12.235
  207	  4.8400	  0.0540	   1.016	  12.415
  210	  4.9000	  0.0540	   1.031	  12.595
  213	  4.9600	  0.0540	   1.046	  12.775
  216	  5.0200	  0.0560	   1.061	  12.955
  219	  5.0800	  0.0580	   1.076	  13.135
  222	  5.1400	  0.0580	   1.091	  13.315
  225	  5.2000	  0.0580	   1.106	  13.495
  228	  5.2600	  0.0580	   1.121	  13.675
  231	  5.3200	  0.0600	   1.136	  13.855
  234	  5.3800	  0.0600	   1.151	  14.035
  237	  5.4400	  0.0620	   1.166	  14.215
  240	  5.5000	  0.0620	   1.181	  14.395
  243	  5.5600	  0.0640	   1.196	  14.575
  246	  5.6200	  0.0640	   1.211	  14.755
  249	  5.6800	  0.0640	   1.226	  14.935
  252	  5.7600	  0.0660	   1.241	  15.115
  255	  5.8200	  0.0660	   1.256	  15.295
  258	  5.8800	  0.0680	   1.272	  15.475
  261	  5.9400	  0.0680	   1.288	  15.655
  264	  6.0000	  0.0680	   1.303	  15.835
  267	  6.0600	  0.0700	   1.317	  16.015
  270	  6.1400	  0.0700	   1.332	  16.195
  273	  6.2000	  0.0720	   1.346	  16.375
  276	  6.2600	  0.0720	   1.362	  16.555
  279	  6.3200	  0.0740	   1.377	  16.735
  282	  6.4000	  0.0740	   1.392	  16.915
  285	  6.4600	  0.0740	   1.407	  17.095
  288	  6.5200	  0.0760	   1.423	  17.275
  291	  6.5800	  0.0760	   1.438	  17.455
  294	  6.6400	  0.0760	   1.452	  17.635
  297	  6.7200	  0.0780	   1.467	  17.815
  300	  6.7800	  0.0800	   1.482	  17.995
  303	  6.8400	  0.0800	   1.497	  18.175
  306	  6.9200	  0.0800	   1.512	  18.355
  309	  6.9800	  0.0820	   1.527	  18.535
  312	  7.0400	  0.0820	   1.543	  18.715
  315	  7.1200	  0.0840	   1.558	  18.895
  318	  7.1800	  0.0840	   1.572	  19.075
  321	  7.2400	  0.0860	   1.587	  19.255
  324	  7.3200	  0.0860	   1.602	  19.435
  327	  7.3800	  0.0860	   1.617	  19.615
  330	  7.4400	  0.0880	   1.632	  19.795
  333	  7.5200	  0.0880	   1.647	  19.975
  336	  7.5800	  0.0900	   1.662	  20.155
  339	  7.6400	  0.0900	   1.678	  20.335
  342	  7.7200	  0.0920	   1.692	  20.515
  345	  7.7800	  0.0920	   1.707	  20.695
  348	  7.8400	  0.0920	   1.722	  20.875
  351	  7.9200	  0.0940	   1.737	  21.055
  354	  7.9800	  0.0960	   1.752	  21.235
  357	  8.0600	  0.0960	   1.767	  21.415
  360	  8.1200	  0.0960	   1.782	  21.595
  363	  8.1800	  0.0980	   1.798	  21.775
  366	  8.2600	  0.0980	   1.812	  21.955
  369	  8.3200	  0.1000	   1.827	  22.135
  372	  8.3800	  0.1000	   1.842	  22.315
  375	  8.4600	  0.1020	   1.857	  22.495
  378	  8.5200	  0.1020	   1.872	  22.675
  381	  8.5800	  0.1040	   1.884	  22.855
  384	  8.6600	  0.1040	   1.899	  23.035
  387	  8.7200	  0.1060	   1.914	  23.215
  390	  8.7800	  0.1060	   1.929	  23.395
  393	  8.8600	  0.1080	   1.944	  23.575
  396	  8.9200	  0.1080	   1.959	  23.755
  399	  9.0000	  0.1080	   1.974	  23.935
  402	  9.0600	  0.1100	   1.990	  24.115
  405	  9.1400	  0.1120	   2.004	  24.295
  408	  9.2000	  0.1120	   2.020	  24.475
  411	  9.2800	  0.1120	   2.034	  24.655
  414	  9.3400	  0.1140	   2.050	  24.835
  417	  9.4200	  0.1140	   2.064	  25.015
  420	  9.4800	  0.1160	   2.080	  25.195
  423	  9.5600	  0.1160	   2.095	  25.375
  426	  9.6200	  0.1180	   2.110	  25.555
  429	  9.7000	  0.1180	   2.125	  25.735
  432	  9.7600	  0.1200	   2.140	  25.915
  435	  9.8400	  0.1200	   2.155	  26.095
  438	  9.9200	  0.1220	   2.170	  26.275
  441	  9.9800	  0.1220	   2.185	  26.455
  444	 10.0600	  0.1240	   2.200	  26.635
  447	 10.1200	  0.1240	   2.215	  26.815
  450	 10.1800	  0.1260	   2.230	  26.995
  453	 10.2600	  0.1260	   2.245	  27.175
  456	 10.3400	  0.1280	   2.260	  27.355
  459	 10.4000	  0.1280	   2.275	  27.535
  462	 10.4800	  0.1300	   2.290	  27.715
  465	 10.5600	  0.1320	   2.305	  27.895
  468	 10.6200	  0.1320	   2.320	  28.075
  471	 10.7000	  0.1320	   2.335	  28.255
  474	 10.7600	  0.1340	   2.350	  28.435
  477	 10.8400	  0.1340	   2.365	  28.615
  480	 10.9200	  0.1360	   2.380	  28.795
  483	 11.0000	  0.1360	   2.395	  28.975
  486	 11.0600	  0.1380	   2.410	  29.155
  489	 11.1400	  0.1400	   2.425	  29.335
  492	 11.2200	  0.1400	   2.440	  29.515
  495	 11.2800	  0.1400	   2.455	  29.695
  498	 11.3600	  0.1420	   2.471	  29.875
  501	 11.4400	  0.1440	   2.486	  30.055
  504	 11.5000	  0.1440	   2.501	  30.235
  507	 11.5800	  0.1460	   2.516	  30.415
  510	 11.6600	  0.1460	   2.531	  30.595
  513	 11.7200	  0.1480	   2.546	  30.775
  516	 11.8000	  0.1480	   2.561	  30.955
  519	 11.8600	  0.1500	   2.576	  31.135
  522	 11.9400	  0.1520	   2.591	  31.315
  525	 12.0200	  0.1520	   2.606	  31.495
  528	 12.1000	  0.1540	   2.621	  31.675
  531	 12.1600	  0.1540	   2.636	  31.855
  534	 12.2400	  0.1560	   2.651	  32.035
  537	 12.3200	  0.1560	   2.666	  32.215
  540	 12.4000	  0.1580	   2.681	  32.395
  543	 12.4600	  0.1600	   2.696	  32.575
  546	 12.5400	  0.1600	   2.711	  32.755
  549	 12.6200	  0.1620	   2.726	  32.935
  552	 12.6800	  0.1620	   2.741	  33.115
  555	 12.7600	  0.1640	   2.756	  33.295
  558	 12.8400	  0.1640	   2.771	  33.475
  561	 12.9000	  0.1660	   2.786	  33.655
  564	 12.9800	  0.1680	   2.801	  33.835
  567	 13.0600	  0.1680	   2.817	  34.015
  570	 13.1200	  0.1700	   2.832	  34.195
  573	 13.2000	  0.1720	   2.847	  34.375
  576	 13.2800	  0.1720	   2.862	  34.555
  579	 13.3400	  0.1740	   2.877	  34.735
  582	 13.4200	  0.1760	   2.892	  34.915
  585	 13.5000	  0.1760	   2.908	  35.095
  588	 13.5600	  0.1780	   2.922	  35.275
  591	 13.6200	  0.1800	   2.938	  35.455
  594	 13.7000	  0.1800	   2.952	  35.635
  597	 13.7800	  0.1820	   2.967	  35.815
  600	 13.8600	  0.1840	   2.982	  35.995
  603	 13.9200	  0.1840	   2.997	  36.175
  606	 14.0000	  0.1860	   3.013	  36.355
  609	 14.0800	  0.1880	   3.027	  36.535
  612	 14.1400	  0.1900	   3.043	  36.715
  615	 14.2200	  0.1920	   3.057	  36.895
  618	 14.2800	  0.1940	   3.072	  37.075
  621	 14.3600	  0.1940	   3.087	  37.255
  624	 14.4400	  0.1960	   3.102	  37.435
  627	 14.5000	  0.1960	   3.117	  37.615
  630	 14.5800	  0.1980	   3.132	  37.795
  633	 14.6400	  0.2000	   3.148	  37.975
  636	 14.7200	  0.2020	   3.162	  38.155
  639	 14.8000	  0.2040	   3.178	  38.335
  642	 14.8600	  0.2060	   3.192	  38.515
  645	 14.9400	  0.2060	   3.207	  38.695
  648	 15.0000	  0.2080	   3.222	  38.875
  651	 15.0800	  0.2100	   3.239	  39.055
  654	 15.1400	  0.2120	   3.254	  39.235
  657	 15.2000	  0.2140	   3.269	  39.415
  660	 15.2800	  0.2160	   3.284	  39.595
  663	 15.3400	  0.2200	   3.299	  39.775
  666	 15.4000	  0.2200	   3.314	  39.955
  669	 15.4800	  0.2240	   3.329	  40.135
  672	 15.5400	  0.2260	   3.344	  40.315
  675	 15.6000	  0.2300	   3.359	  40.495
  678	 15.6400	  0.2340	   3.374	  40.675
  681	 15.6800	  0.2380	   3.389	  40.855
  684	 15.7200	  0.2440	   3.404	  41.035
  687	 15.7400	  0.2500	   3.419	  41.215
  690	 15.7600	  0.2580	   3.434	  41.395
  693	 15.7800	  0.2680	   3.449	  41.575
  696	 15.7800	  0.2760	   3.464	  41.755
  699	 15.8000	  0.2860	   3.479	  41.935
  702	 15.8200	  0.2960	   3.494	  42.115
  705	 15.8200	  0.3060	   3.509	  42.295
  708	 15.8400	  0.3180	   3.524	  42.475
  711	 15.8600	  0.3280	   3.540	  42.655
  714	 15.8800	  0.3400	   3.554	  42.835
  717	 15.8800	  0.3520	   3.570	  43.015
  720	 15.8800	  0.3640	   3.585	  43.195
  723	 15.9000	  0.3760	   3.600	  43.375
  726	 15.9200	  0.3860	   3.615	  43.555
  729	 15.9200	  0.3980	   3.630	  43.735
  732	 15.9400	  0.4100	   3.645	  43.915
  735	 15.9400	  0.4220	   3.660	  44.095
  738	 15.9600	  0.4340	   3.675	  44.275
  741	 15.9600	  0.4460	   3.690	  44.455
  744	 15.9800	  0.4580	   3.705	  44.635
  747	 15.9800	  0.4700	   3.720	  44.815
  750	 15.9800	  0.4820	   3.735	  44.995
  753	 16.0000	  0.4940	   3.750	  45.175
  756	 16.0000	  0.5080	   3.765	  45.355
  759	 16.0200	  0.5200	   3.781	  45.535
  762	 16.0200	  0.5320	   3.796	  45.715
  765	 16.0400	  0.5440	   3.811	  45.895
  768	 16.0400	  0.5560	   3.826	  46.075
  771	 16.0600	  0.5700	   3.841	  46.255
  774	 16.0600	  0.5820	   3.856	  46.435
  777	 16.0800	  0.5940	   3.871	  46.615
  780	 16.0800	  0.6060	   3.886	  46.795
  783	 16.0800	  0.6200	   3.901	  46.975
  786	 16.1000	  0.6320	   3.916	  47.155
  789	 16.1000	  0.6440	   3.931	  47.335
  792	 16.1000	  0.6580	   3.946	  47.515
  795	 16.1200	  0.6700	   3.961	  47.695
  798	 16.1200	  0.6820	   3.976	  47.875
  801	 16.1400	  0.6960	   3.991	  48.055
  804	 16.1400	  0.7080	   4.006	  48.235
  807	 16.1400	  0.7220	   4.021	  48.415
  810	 16.1600	  0.7340	   4.036	  48.595
  813	 16.1600	  0.7460	   4.051	  48.775
  816	 16.1600	  0.7600	   4.065	  48.955
  819	 16.1800	  0.7720	   4.080	  49.135
  822	 16.1800	  0.7860	   4.096	  49.315
  825	 16.1800	  0.7980	   4.111	  49.495
  828	 16.2000	  0.8120	   4.126	  49.675
  831	 16.2000	  0.8240	   4.141	  49.855
  834	 16.2000	  0.8380	   4.156	  50.035
  837	 16.2200	  0.8500	   4.171	  50.215
  840	 16.2200	  0.8640	   4.186	  50.395
  843	 16.2200	  0.8760	   4.201	  50.575
  846	 16.2400	  0.8900	   4.216	  50.755
  849	 16.2400	  0.9020	   4.231	  50.935
  852	 16.2400	  0.9140	   4.246	  51.115
  855	 16.2400	  0.9280	   4.261	  51.295
  858	 16.2600	  0.9400	   4.276	  51.475
  861	 16.2600	  0.9520	   4.291	  51.655
  864	 16.2800	  0.9660	   4.306	  51.835
  867	 16.2800	  0.9800	   4.321	  52.015
  870	 16.2800	  0.9940	   4.336	  52.195
  873	 16.2800	  1.0064	   4.351	  52.375
  876	 16.3000	  1.0214	   4.366	  52.555
  879	 16.3000	  1.0364	   4.381	  52.735
  882	 16.3000	  1.0514	   4.396	  52.915
  885	 16.3200	  1.0664	   4.411	  53.095
  888	 16.3200	  1.0826	   4.427	  53.275
  891	 16.3200	  1.0976	   4.443	  53.455
  894	 16.3200	  1.1114	   4.456	  53.635
  897	 16.3400	  1.1276	   4.472	  53.815
  900	 16.3400	  1.1426	   4.487	  53.995
  903	 16.3400	  1.1576	   4.503	  54.175
  906	 16.3400	  1.1726	   4.517	  54.355
  909	 16.3600	  1.1876	   4.532	  54.535
  912	 16.3600	  1.2026	   4.548	  54.715
  915	 16.3600	  1.2176	   4.562	  54.895
  918	 16.3600	  1.2326	   4.577	  55.075
  921	 16.3800	  1.2476	   4.592	  55.255
  924	 16.3800	  1.2626	   4.608	  55.435
  927	 16.3800	  1.2776	   4.622	  55.615
  930	 16.3800	  1.2926	   4.637	  55.795
  933	 16.4000	  1.3076	   4.652	  55.975
  936	 16.4000	  1.3226	   4.668	  56.155
  939	 16.4000	  1.3376	   4.682	  56.335
  942	 16.4000	  1.3526	   4.697	  56.515
  945	 16.4200	  1.3676	   4.713	  56.695
  948	 16.4000	  1.3801	   4.725	  56.875
  951	 16.2400	  1.3814	   4.726	  57.055
  954	 16.1400	  1.3814	   4.726	  57.235
  957	 16.0800	  1.3814	   4.726	  57.415
  960	 16.0400	  1.3814	   4.726	  57.595
  963	 16.0000	  1.3814	   4.726	  57.775
  966	 15.9800	  1.3814	   4.726	  57.955
  969	 15.9400	  1.3814	   4.726	  58.135
  972	 15.9200	  1.3814	   4.726	  58.315
  975	 15.9000	  1.3814	   4.726	  58.495
  978	 15.8800	  1.3814	   4.726	  58.675
  981	 15.8800	  1.3814	   4.726	  58.855
  984	 15.8600	  1.3814	   4.726	  59.035
  987	 15.8400	  1.3814	   4.726	  59.215
  990	 15.8400	  1.3814	   4.726	  59.395
  993	 15.8200	  1.3814	   4.726	  59.575
  996	 15.8200	  1.3814	   4.726	  59.755
  999	 15.8000	  1.3814	   4.726	  59.935
 1002	 15.7800	  1.3814	   4.726	  60.115
 1005	 15.7800	  1.3814	   4.726	  60.295
 1008	 15.7800	  1.3814	   4.726	  60.475
 1011	 15.7600	  1.3814	   4.726	  60.655
 1014	 15.7600	  1.3814	   4.726	  60.835
 1017	 15.7400	  1.3814	   4.726	  61.015
 1020	 15.7400	  1.3814	   4.726	  61.195
 1023	 15.7400	  1.3814	   4.726	  61.375
 1026	 15.7200	  1.3814	   4.726	  61.555
 1029	 15.7200	  1.3814	   4.726	  61.735
 1032	 15.7200	  1.3814	   4.726	  61.915
 1035	 15.7200	  1.3814	   4.726	  62.095
 1038	 15.7000	  1.3814	   4.726	  62.275
 1041	 15.7000	  1.3814	   4.726	  62.455
 1044	 15.7000	  1.3814	   4.726	  62.635
 1047	 15.7000	  1.3814	   4.726	  62.815
 1050	 15.6800	  1.3814	   4.726	  62.995
 1053	 15.6800	  1.3814	   4.726	  63.175
 1056	 15.6800	  1.3814	   4.726	  63.355
 1059	 15.6800	  1.3814	   4.726	  63.535
 1062	 15.6600	  1.3814	   4.726	  63.715
 1065	 15.6600	  1.3814	   4.726	  63.895
 1068	 15.6600	  1.3814	   4.726	  64.075
 1071	 15.6600	  1.3814	   4.726	  64.255
 1074	 15.6600	  1.3814	   4.726	  64.435
 1077	 15.6400	  1.3814	   4.726	  64.615
 1080	 15.6400	  1.3814	   4.726	  64.795
 1083	 15.6400	  1.3814	   4.726	  64.975
 1086	 15.6400	  1.3814	   4.726	  65.155
 1089	 15.6400	  1.3814	   4.726	  65.335
 1092	 15.6200	  1.3814	   4.726	  65.515
 1095	 15.6200	  1.3814	   4.726	  65.695
 1098	 15.6200	  1.3814	   4.726	  65.875
 1101	 15.6200	  1.3814	   4.726	  66.055
 1104	 15.6200	  1.3814	   4.726	  66.235
 1107	 15.6200	  1.3814	   4.726	  66.415
 1110	 15.6200	  1.3814	   4.726	  66.595
 1113	 15.6000	  1.3814	   4.726	  66.775
 1116	 15.6000	  1.3814	   4.726	  66.955
 1119	 15.6000	  1.3814	   4.726	  67.135
 1122	 15.6000	  1.3814	   4.726	  67.315
 1125	 15.6000	  1.3814	   4.726	  67.495
 1128	 15.6000	  1.3814	   4.726	  67.675
 1131	 15.5800	  1.3814	   4.726	  67.855
 1134	 15.5800	  1.3814	   4.726	  68.035
 1137	 15.5800	  1.3814	   4.726	  68.215
 1140	 15.5800	  1.3814	   4.726	  68.395
 1143	 15.5800	  1.3814	   4.726	  68.575
 1146	 15.5800	  1.3814	   4.726	  68.755
 1149	 15.5800	  1.3814	   4.726	  68.935
 1152	 15.5600	  1.3814	   4.726	  69.115
 1155	 15.5600	  1.3814	   4.726	  69.295
 1158	 15.5600	  1.3814	   4.726	  69.475
 1161	 15.5600	  1.3814	   4.726	  69.655
 1164	 15.5600	  1.3814	   4.726	  69.835
 1167	 15.5600	  1.3814	   4.726	  70.015
 1170	 15.5600	  1.3814	   4.726	  70.195
 1173	 15.5600	  1.3814	   4.726	  70.375
 1176	 15.5600	  1.3814	   4.726	  70.555
 1179	 15.5400	  1.3814	   4.726	  70.735
 1182	 15.5400	  1.3814	   4.726	  70.915
 1185	 15.5400	  1.3814	   4.726	  71.095
 1188	 15.5400	  1.3814	   4.726	  71.275
 1191	 15.5400	  1.3814	   4.726	  71.455
 1194	 15.5400	  1.3814	   4.726	  71.635
 1197	 15.5400	  1.3814	   4.726	  71.815
 1200	 15.5400	  1.3814	   4.726	  71.995
 1203	 15.5400	  1.3814	   4.726	  72.175
 1206	 15.5400	  1.3814	   4.726	  72.355
 1209	 15.5400	  1.3814	   4.726	  72.535
 1212	 15.5200	  1.3814	   4.726	  72.715
 1215	 15.5200	  1.3814	   4.726	  72.895
 1218	 15.5200	  1.3814	   4.726	  73.075
 1221	 15.5200	  1.3814	   4.726	  73.255
 1224	 15.5200	  1.3814	   4.726	  73.435
 1227	 15.5200	  1.3814	   4.726	  73.615
 1230	 15.5200	  1.3814	   4.726	  73.795
 1233	 15.5200	  1.3814	   4.726	  73.975
 1236	 15.5000	  1.3814	   4.726	  74.155
 1239	 15.5200	  1.3814	   4.726	  74.335
 1242	 15.5000	  1.3814	   4.726	  74.515
 1245	 15.5000	  1.3814	   4.726	  74.695
 1248	 15.5000	  1.3814	   4.726	  74.875
 1251	 15.5000	  1.3814	   4.726	  75.055
 1254	 15.5000	  1.3814	   4.726	  75.235
 1257	 15.5000	  1.3814	   4.726	  75.415
 1260	 15.5000	  1.3814	   4.726	  75.595
 1263	 15.5000	  1.3814	   4.726	  75.775
 1266	 15.5000	  1.3814	   4.726	  75.955
 1269	 15.5000	  1.3814	   4.726	  76.135
 1272	 15.5000	  1.3814	   4.726	  76.315
 1275	 15.5000	  1.3814	   4.726	  76.495
 1278	 15.5000	  1.3814	   4.726	  76.675
 1281	 15.5000	  1.3814	   4.726	  76.855
 1284	 15.4800	  1.3814	   4.726	  77.035
 1287	 15.4800	  1.3814	   4.726	  77.215
 1290	 15.4800	  1.3814	   4.726	  77.395
 1293	 15.4800	  1.3814	   4.726	  77.575
 1296	 15.4800	  1.3814	   4.726	  77.755
 1299	 15.4800	  1.3814	   4.726	  77.935
 1302	 15.4800	  1.3814	   4.726	  78.115
 1305	 15.4800	  1.3814	   4.726	  78.295
 1308	 15.4800	  1.3814	   4.726	  78.475
 1311	 15.4600	  1.3814	   4.726	  78.655
 1314	 15.4800	  1.3814	   4.726	  78.835
 1317	 15.4600	  1.3814	   4.726	  79.015
 1320	 15.4800	  1.3814	   4.726	  79.195
 1323	 15.4600	  1.3814	   4.726	  79.375
 1326	 15.4600	  1.3814	   4.726	  79.555
 1329	 15.4600	  1.3814	   4.726	  79.735
 1332	 15.4600	  1.3814	   4.726	  79.915
 1335	 15.4600	  1.3814	   4.726	  80.095
 1338	 15.4600	  1.3814	   4.726	  80.275
 1341	 15.4600	  1.3814	   4.726	  80.455
 1344	 15.4600	  1.3814	   4.726	  80.635
 1347	 15.4600	  1.3814	   4.726	  80.815
 1350	 15.4600	  1.3814	   4.726	  80.995
 1353	 15.4600	  1.3814	   4.726	  81.175
 1356	 15.4600	  1.3814	   4.726	  81.355
 1359	 15.4600	  1.3814	   4.726	  81.535
 1362	 15.4600	  1.3814	   4.726	  81.715
 1365	 15.4600	  1.3814	   4.726	  81.895
 1368	 15.4400	  1.3814	   4.726	  82.075
 1371	 15.4400	  1.3814	   4.726	  82.255
 1374	 15.4400	  1.3814	   4.726	  82.435
 1377	 15.4400	  1.3814	   4.726	  82.615
 1380	 15.4400	  1.3814	   4.726	  82.795
 1383	 15.4400	  1.3814	   4.726	  82.975
 1386	 15.4400	  1.3814	   4.726	  83.155
 1389	 15.4400	  1.3814	   4.726	  83.335
 1392	 15.4400	  1.3814	   4.726	  83.515
 1395	 15.4400	  1.3814	   4.726	  83.695
 1398	 15.4400	  1.3814	   4.726	  83.875
 1401	 15.4400	  1.3814	   4.726	  84.055
 1404	 15.4400	  1.3814	   4.726	  84.235
 1407	 15.4200	  1.3814	   4.726	  84.415
 1410	 15.4200	  1.3814	   4.726	  84.595
 1413	 15.4200	  1.3814	   4.726	  84.775
 1416	 15.4200	  1.3814	   4.726	  84.955
 1419	 15.4200	  1.3814	   4.726	  85.135
 1422	 15.4200	  1.3814	   4.726	  85.315
 1425	 15.4200	  1.3814	   4.726	  85.495
 1428	 15.4200	  1.3814	   4.726	  85.675
 1431	 15.4200	  1.3814	   4.726	  85.855
 1434	 15.4200	  1.3814	   4.726	  86.035
 1437	 15.4200	  1.3814	   4.726	  86.215
 1440	 15.4200	  1.3814	   4.726	  86.395
 1443	 15.4200	  1.3814	   4.726	  86.575
 1446	 15.4200	  1.3814	   4.726	  86.755
 1449	 15.4200	  1.3814	   4.726	  86.935
 1452	 15.4200	  1.3814	   4.726	  87.115
 1455	 15.4200	  1.3814	   4.726	  87.295
 1458	 15.4200	  1.3814	   4.726	  87.475
 1461	 15.4000	  1.3814	   4.726	  87.655
 1464	 15.4000	  1.3814	   4.726	  87.835
 1467	 15.4000	  1.3814	   4.726	  88.015
 1470	 15.4000	  1.3814	   4.726	  88.195
 1473	 15.4000	  1.3814	   4.726	  88.375
 1476	 15.4000	  1.3814	   4.726	  88.555
 1479	 15.4000	  1.3814	   4.726	  88.735
 1482	 15.4000	  1.3814	   4.726	  88.915
 1485	 15.4000	  1.3814	   4.726	  89.095
 1488	 15.4000	  1.3814	   4.726	  89.275
 1491	 15.4000	  1.3814	   4.726	  89.455
 1494	 15.4000	  1.3814	   4.726	  89.635
 1497	 15.4000	  1.3814	   4.726	  89.815
 1500	 15.4000	  1.3814	   4.726	  89.995
 1503	 15.4000	  1.3814	   4.726	  90.175
 1506	 15.4000	  1.3814	   4.726	  90.355
 1509	 15.4000	  1.3814	   4.726	  90.535
 1512	 15.4000	  1.3814	   4.726	  90.715
 1515	 15.3800	  1.3814	   4.726	  90.895
 1518	 15.4000	  1.3814	   4.726	  91.075
 1521	 15.4000	  1.3814	   4.726	  91.255
 1524	 15.3800	  1.3814	   4.726	  91.435
 1527	 15.3800	  1.3814	   4.726	  91.615
 1530	 15.3800	  1.3814	   4.726	  91.795
 1533	 15.3800	  1.3814	   4.726	  91.975
 1536	 15.3800	  1.3814	   4.726	  92.155
 1539	 15.3800	  1.3814	   4.726	  92.335
 1542	 15.3800	  1.3814	   4.726	  92.515
 1545	 15.3800	  1.3814	   4.726	  92.695
 1548	 15.3800	  1.3814	   4.726	  92.875
 1551	 15.3800	  1.3814	   4.726	  93.055
 1554	 15.3800	  1.3814	   4.726	  93.235
 1557	 15.3800	  1.3814	   4.726	  93.415
 1560	 15.3800	  1.3814	   4.726	  93.595
 1563	 15.3800	  1.3814	   4.726	  93.775
 1566	 15.3800	  1.3814	   4.726	  93.955
 1569	 15.3800	  1.3814	   4.726	  94.135
 1572	 15.3800	  1.3814	   4.726	  94.315
 1575	 15.3800	  1.3814	   4.726	  94.495
 1578	 15.3800	  1.3851	   4.730	  94.675
 1581	 15.7200	  1.3989	   4.744	  94.855
 1584	 16.0400	  1.4139	   4.759	  95.035
 1587	 16.3400	  1.4289	   4.774	  95.215
 1590	 16.5600	  1.4439	   4.789	  95.395
 1593	 16.6600	  1.4589	   4.804	  95.575
 1596	 16.6600	  1.4739	   4.819	  95.755
 1599	 16.6000	  1.4889	   4.834	  95.935
 1602	 16.5800	  1.5051	   4.850	  96.115
 1605	 16.5800	  1.5189	   4.864	  96.295
 1608	 16.5800	  1.5351	   4.880	  96.475
 1611	 16.5800	  1.5501	   4.895	  96.655
 1614	 16.5800	  1.5639	   4.909	  96.835
 1617	 16.5800	  1.5789	   4.924	  97.015
 1620	 16.5800	  1.5939	   4.939	  97.195
 1623	 16.5800	  1.6089	   4.954	  97.375
 1626	 16.5800	  1.6239	   4.969	  97.555
 1629	 16.5800	  1.6389	   4.984	  97.735
 1632	 16.5800	  1.6539	   4.999	  97.915
 1635	 16.5800	  1.6689	   5.014	  98.095
 1638	 16.5800	  1.6839	   5.029	  98.275
 1641	 16.5800	  1.6989	   5.044	  98.455
 1644	 16.5600	  1.7139	   5.059	  98.635
 1647	 16.5600	  1.7289	   5.074	  98.815
 1650	 16.5600	  1.7439	   5.089	  98.995
 1653	 16.5600	  1.7589	   5.104	  99.175
 1656	 16.5400	  1.7739	   5.119	  99.355
 1659	 16.5400	  1.7889	   5.134	  99.535
 1662	 16.5400	  1.8051	   5.150	  99.715
 1665	 16.5400	  1.8189	   5.164	  99.895
 1668	 16.5400	  1.8351	   5.180	 100.075
 1671	 16.5200	  1.8489	   5.194	 100.255
 1674	 16.5200	  1.8651	   5.210	 100.435
 1677	 16.5200	  1.8801	   5.225	 100.615
 1680	 16.5200	  1.8951	   5.240	 100.795
 1683	 16.5200	  1.9101	   5.255	 100.975
 1686	 16.5200	  1.9251	   5.270	 101.155
 1689	 16.5200	  1.9389	   5.284	 101.335
 1692	 16.5200	  1.9551	   5.300	 101.515
 1695	 16.5200	  1.9689	   5.314	 101.695
 1698	 16.5200	  1.9851	   5.330	 101.875
 1701	 16.5400	  2.0001	   5.345	 102.055
 1704	 16.5400	  2.0151	   5.360	 102.235
 1707	 16.5400	  2.0301	   5.375	 102.415
 1710	 16.5400	  2.0451	   5.390	 102.595
 1713	 16.5400	  2.0601	   5.405	 102.775
 1716	 16.5400	  2.0751	   5.420	 102.955
 1719	 16.5600	  2.0901	   5.435	 103.135
 1722	 16.5600	  2.1051	   5.450	 103.315
 1725	 16.5600	  2.1201	   5.465	 103.495
 1728	 16.5600	  2.1351	   5.480	 103.675
 1731	 16.5600	  2.1501	   5.495	 103.855
 1734	 16.5600	  2.1651	   5.510	 104.035
 1737	 16.5600	  2.1801	   5.525	 104.215
 1740	 16.5800	  2.1951	   5.540	 104.395
 1743	 16.5800	  2.2101	   5.555	 104.575
 1746	 16.5800	  2.2251	   5.570	 104.755
 1749	 16.5800	  2.2401	   5.585	 104.935
 1752	 16.5800	  2.2564	   5.601	 105.115
 1755	 16.5800	  2.2714	   5.616	 105.295
 1758	 16.5800	  2.2864	   5.631	 105.475
 1761	 16.5800	  2.3014	   5.646	 105.655
 1764	 16.6000	  2.3164	   5.661	 105.835
 1767	 16.6000	  2.3314	   5.676	 106.015
 1770	 16.6000	  2.3464	   5.691	 106.195
 1773	 16.6000	  2.3614	   5.706	 106.375
 1776	 16.6000	  2.3764	   5.721	 106.555
 1779	 16.6000	  2.3914	   5.736	 106.735
 1782	 16.6000	  2.4064	   5.751	 106.915
 1785	 16.6000	  2.4214	   5.766	 107.095
 1788	 16.6000	  2.4364	   5.781	 107.275
 1791	 16.6000	  2.4501	   5.795	 107.455
 1794	 16.6200	  2.4651	   5.810	 107.635
 1797	 16.6200	  2.4814	   5.826	 107.815
 1800	 16.6200	  2.4964	   5.841	 107.995
 1803	 16.6200	  2.5114	   5.856	 108.175
 1806	 16.6200	  2.5264	   5.871	 108.355
 1809	 16.6200	  2.5414	   5.886	 108.535
 1812	 16.6200	  2.5564	   5.901	 108.715
 1815	 16.6200	  2.5714	   5.916	 108.895
 1818	 16.6200	  2.5864	   5.931	 109.075
 1821	 16.6200	  2.6014	   5.946	 109.255
 1824	 16.6200	  2.6164	   5.961	 109.435
 1827	 16.6200	  2.6314	   5.976	 109.615
 1830	 16.6200	  2.6464	   5.991	 109.795
 1833	 16.6200	  2.6614	   6.006	 109.975
 1836	 16.6200	  2.6764	   6.021	 110.155
 1839	 16.6200	  2.6914	   6.036	 110.335
 1842	 16.6200	  2.7064	   6.051	 110.515
 1845	 16.6200	  2.7214	   6.066	 110.695
 1848	 16.6200	  2.7364	   6.081	 110.875
 1851	 16.6200	  2.7514	   6.096	 111.055
 1854	 16.6200	  2.7664	   6.111	 111.235
 1857	 16.6200	  2.7814	   6.126	 111.415
 1860	 16.6200	  2.7964	   6.141	 111.595
 1863	 16.6200	  2.8114	   6.156	 111.775
 1866	 16.6200	  2.8276	   6.172	 111.955
 1869	 16.6200	  2.8426	   6.188	 112.135
 1872	 16.6200	  2.8576	   6.202	 112.315
 1875	 16.6200	  2.8726	   6.217	 112.495
 1878	 16.6000	  2.8876	   6.233	 112.675
 1881	 16.6000	  2.9026	   6.247	 112.855
 1884	 16.6000	  2.9176	   6.262	 113.035
 1887	 16.6000	  2.9326	   6.277	 113.215
 1890	 16.6000	  2.9476	   6.293	 113.395
 1893	 16.6000	  2.9626	   6.307	 113.575
 1896	 16.6000	  2.9776	   6.322	 113.755
 1899	 16.6000	  2.9926	   6.338	 113.935
 1902	 16.6000	  3.0076	   6.352	 114.115
 1905	 16.6000	  3.0226	   6.367	 114.295
 1908	 16.5800	  3.0376	   6.382	 114.475
 1911	 16.5800	  3.0526	   6.398	 114.655
 1914	 16.5800	  3.0676	   6.412	 114.835
 1917	 16.5800	  3.0826	   6.427	 115.015
 1920	 16.5800	  3.0976	   6.442	 115.195
 1923	 16.5800	  3.1126	   6.457	 115.375
 1926	 16.5600	  3.1276	   6.472	 115.555
 1929	 16.5600	  3.1426	   6.487	 115.735
 1932	 16.5600	  3.1576	   6.503	 115.915
 1935	 16.5600	  3.1726	   6.517	 116.095
 1938	 16.5400	  3.1876	   6.532	 116.275
 1941	 16.5400	  3.2026	   6.547	 116.455
 1944	 16.5400	  3.2176	   6.562	 116.635
 1947	 16.5400	  3.2339	   6.579	 116.815
 1950	 16.5200	  3.2476	   6.592	 116.995
 1953	 16.5200	  3.2639	   6.609	 117.175
 1956	 16.5200	  3.2789	   6.624	 117.355
 1959	 16.5000	  3.2939	   6.639	 117.535
 1962	 16.5000	  3.3076	   6.652	 117.715
 1965	 16.5000	  3.3239	   6.669	 117.895
 1968	 16.4800	  3.3389	   6.684	 118.075
 1971	 16.4800	  3.3539	   6.699	 118.255
 1974	 16.4800	  3.3689	   6.714	 118.435
 1977	 16.4600	  3.3839	   6.729	 118.615
 1980	 16.4600	  3.3989	   6.744	 118.795
 1983	 16.4600	  3.4139	   6.759	 118.975
 1986	 16.4400	  3.4289	   6.774	 119.155
 1989	 16.4400	  3.4439	   6.789	 119.335
 1992	 16.4200	  3.4589	   6.804	 119.515
 1995	 16.4200	  3.4739	   6.819	 119.695
 1998	 16.4000	  3.4889	   6.834	 119.875
 2001	 16.4000	  3.5039	   6.849	 120.055
 2004	 16.3800	  3.5189	   6.864	 120.235
 2007	 16.3800	  3.5339	   6.879	 120.415
 2010	 16.3600	  3.5489	   6.894	 120.595
 2013	 16.3600	  3.5639	   6.909	 120.775
 2016	 16.3400	  3.5789	   6.924	 120.955
 2019	 16.3400	  3.5939	   6.939	 121.135
 2022	 16.3200	  3.6089	   6.954	 121.315
 2025	 16.3200	  3.6239	   6.969	 121.495
 2028	 16.3000	  3.6389	   6.984	 121.675
 2031	 16.2800	  3.6551	   7.000	 121.855
 2034	 16.2800	  3.6689	   7.014	 122.035
 2037	 16.2600	  3.6851	   7.030	 122.215
 2040	 16.2600	  3.6989	   7.044	 122.395
 2043	 16.2400	  3.7151	   7.060	 122.575
 2046	 16.2200	  3.7301	   7.075	 122.755
 2049	 16.2000	  3.7451	   7.090	 122.935
 2052	 16.2000	  3.7601	   7.105	 123.115
 2055	 16.1800	  3.7751	   7.120	 123.295
 2058	 16.1600	  3.7901	   7.135	 123.475
 2061	 16.1600	  3.8051	   7.150	 123.655
 2064	 16.1400	  3.8201	   7.165	 123.835
 2067	 16.1200	  3.8351	   7.180	 124.015
 2070	 16.1200	  3.8501	   7.195	 124.195
 2073	 16.1000	  3.8651	   7.210	 124.375
 2076	 16.0800	  3.8801	   7.225	 124.555
 2079	 16.0600	  3.8951	   7.240	 124.735
 2082	 16.0400	  3.9101	   7.255	 124.915
 2085	 16.0400	  3.9251	   7.270	 125.095
 2088	 16.0200	  3.9401	   7.285	 125.275
 2091	 16.0000	  3.9564	   7.301	 125.455
 2094	 15.9800	  3.9701	   7.315	 125.635
 2097	 15.9600	  3.9864	   7.331	 125.815
 2100	 15.9400	  4.0001	   7.345	 125.995
 2103	 15.9400	  4.0151	   7.360	 126.175
 2106	 15.9200	  4.0301	   7.375	 126.355
 2109	 15.9000	  4.0451	   7.390	 126.535
 2112	 15.8800	  4.0601	   7.405	 126.715
 2115	 15.8600	  4.0751	   7.420	 126.895
 2118	 15.8400	  4.0901	   7.435	 127.075
 2121	 15.8200	  4.1051	   7.450	 127.255
 2124	 15.8000	  4.1201	   7.465	 127.435
 2127	 15.7800	  4.1351	   7.480	 127.615
 2130	 15.7800	  4.1501	   7.495	 127.795
 2133	 15.7600	  4.1664	   7.511	 127.975
 2136	 15.7400	  4.1814	   7.526	 128.155
 2139	 15.7200	  4.1964	   7.541	 128.335
 2142	 15.7000	  4.2114	   7.556	 128.515
 2145	 15.6800	  4.2264	   7.571	 128.695
 2148	 15.6600	  4.2414	   7.586	 128.875
 2151	 15.6400	  4.2564	   7.601	 129.055
 2154	 15.6200	  4.2714	   7.616	 129.235
 2157	 15.6000	  4.2864	   7.631	 129.415
 2160	 15.5800	  4.3014	   7.646	 129.595
 2163	 15.5600	  4.3164	   7.661	 129.775
 2166	 15.5400	  4.3314	   7.676	 129.955
 2169	 15.5200	  4.3464	   7.691	 130.135
 2172	 15.5000	  4.3614	   7.706	 130.315
 2175	 15.4800	  4.3764	   7.721	 130.495
 2178	 15.4600	  4.3914	   7.736	 130.675
 2181	 15.4400	  4.4064	   7.751	 130.855
 2184	 15.4200	  4.4214	   7.766	 131.035
 2187	 15.4000	  4.4364	   7.781	 131.215
 2190	 15.3800	  4.4514	   7.796	 131.395
 2193	 15.3400	  4.4676	   7.812	 131.575
 2196	 15.3200	  4.4826	   7.827	 131.755
 2199	 15.3000	  4.4976	   7.842	 131.935
 2202	 15.2800	  4.5126	   7.857	 132.115
 2205	 15.2600	  4.5276	   7.872	 132.295
 2208	 15.2400	  4.5426	   7.887	 132.475
 2211	 15.2200	  4.5576	   7.902	 132.655
 2214	 15.2000	  4.5726	   7.918	 132.835
 2217	 15.1800	  4.5876	   7.932	 133.015
 2220	 15.1600	  4.6026	   7.947	 133.195
 2223	 15.1400	  4.6176	   7.962	 133.375
 2226	 15.1000	  4.6326	   7.977	 133.555
 2229	 15.0800	  4.6476	   7.992	 133.735
 2232	 15.0600	  4.6626	   8.007	 133.915
 2235	 15.0400	  4.6776	   8.023	 134.095
 2238	 15.0200	  4.6926	   8.037	 134.275
 2241	 15.0000	  4.7076	   8.052	 134.455
 2244	 14.9600	  4.7226	   8.068	 134.635
 2247	 14.9400	  4.7376	   8.082	 134.815
 2250	 14.9200	  4.7526	   8.097	 134.995
 2253	 14.9000	  4.7676	   8.113	 135.175
 2256	 14.8800	  4.7826	   8.127	 135.355
 2259	 14.8400	  4.7976	   8.142	 135.535
 2262	 14.8200	  4.8126	   8.158	 135.715
 2265	 14.8000	  4.8289	   8.174	 135.895
 2268	 14.7800	  4.8439	   8.189	 136.075
 2271	 14.7400	  4.8589	   8.204	 136.255
 2274	 14.7200	  4.8739	   8.219	 136.435
 2277	 14.7000	  4.8889	   8.234	 136.615
 2280	 14.6800	  4.9039	   8.249	 136.795
 2283	 14.6400	  4.9189	   8.264	 136.975
 2286	 14.6200	  4.9339	   8.279	 137.155
 2289	 14.6000	  4.9489	   8.294	 137.335
 2292	 14.5600	  4.9639	   8.309	 137.515
 2295	 14.5400	  4.9789	   8.324	 137.695
 2298	 14.5200	  4.9939	   8.339	 137.875
 2301	 14.4800	  5.0089	   8.354	 138.055
 2304	 14.4600	  5.0239	   8.369	 138.235
 2307	 14.4400	  5.0389	   8.384	 138.415
 2310	 14.4000	  5.0539	   8.399	 138.595
 2313	 14.3800	  5.0689	   8.414	 138.775
 2316	 14.3600	  5.0839	   8.429	 138.955
 2319	 14.3200	  5.0989	   8.444	 139.135
 2322	 14.3000	  5.1151	   8.460	 139.315
 2325	 14.2800	  5.1301	   8.475	 139.495
 2328	 14.2400	  5.1451	   8.490	 139.675
 2331	 14.2200	  5.1601	   8.505	 139.855
 2334	 14.1800	  5.1751	   8.520	 140.035
 2337	 14.1600	  5.1901	   8.535	 140.215
 2340	 14.1400	  5.2051	   8.550	 140.395
 2343	 14.1000	  5.2201	   8.565	 140.575
 2346	 14.0800	  5.2351	   8.580	 140.755
 2349	 14.0400	  5.2501	   8.595	 140.935
 2352	 14.0200	  5.2651	   8.610	 141.115
 2355	 13.9800	  5.2801	   8.625	 141.295
 2358	 13.9600	  5.2951	   8.640	 141.475
 2361	 13.9200	  5.3101	   8.655	 141.655
 2364	 13.9000	  5.3251	   8.670	 141.835
 2367	 13.8800	  5.3401	   8.685	 142.015
 2370	 13.8400	  5.3551	   8.700	 142.195
 2373	 13.8200	  5.3701	   8.715	 142.375
 2376	 13.7800	  5.3851	   8.730	 142.555
 2379	 13.7600	  5.4001	   8.745	 142.735
 2382	 13.7200	  5.4151	   8.760	 142.915
 2385	 13.6800	  5.4301	   8.775	 143.095
 2388	 13.6600	  5.4464	   8.791	 143.275
 2391	 13.6200	  5.4601	   8.805	 143.455
 2394	 13.6000	  5.4751	   8.820	 143.635
 2397	 13.5600	  5.4901	   8.835	 143.815
 2400	 13.5400	  5.5051	   8.850	 143.995
 2403	 13.5000	  5.5214	   8.866	 144.175
 2406	 13.4600	  5.5364	   8.881	 144.355
 2409	 13.4400	  5.5514	   8.896	 144.535
 2412	 13.4000	  5.5664	   8.911	 144.715
 2415	 13.3800	  5.5814	   8.926	 144.895
 2418	 13.3400	  5.5964	   8.941	 145.075
 2421	 13.3000	  5.6114	   8.956	 145.255
 2424	 13.2600	  5.6264	   8.971	 145.435
 2427	 13.2400	  5.6414	   8.986	 145.615
 2430	 13.2000	  5.6564	   9.001	 145.795
 2433	 13.1600	  5.6714	   9.016	 145.975
 2436	 13.1400	  5.6864	   9.031	 146.155
 2439	 13.1000	  5.7014	   9.046	 146.335
 2442	 13.0600	  5.7164	   9.061	 146.515
 2445	 13.0200	  5.7314	   9.076	 146.695
 2448	 13.0000	  5.7464	   9.091	 146.875
 2451	 12.9600	  5.7614	   9.106	 147.055
 2454	 12.9200	  5.7764	   9.121	 147.235
 2457	 12.8800	  5.7914	   9.136	 147.415
 2460	 12.8400	  5.8064	   9.151	 147.595
 2463	 12.8000	  5.8214	   9.166	 147.775
 2466	 12.7800	  5.8364	   9.181	 147.955
 2469	 12.7400	  5.8514	   9.196	 148.135
 2472	 12.7000	  5.8664	   9.211	 148.315
 2475	 12.6600	  5.8814	   9.226	 148.495
 2478	 12.6200	  5.8964	   9.241	 148.675
 2481	 12.5800	  5.9114	   9.256	 148.855
 2484	 12.5400	  5.9264	   9.271	 149.035
 2487	 12.5000	  5.9414	   9.286	 149.215
 2490	 12.4600	  5.9576	   9.302	 149.395
 2493	 12.4200	  5.9726	   9.318	 149.575
 2496	 12.3800	  5.9876	   9.332	 149.755
 2499	 12.3400	  6.0026	   9.347	 149.935
 2502	 12.3000	  6.0176	   9.363	 150.115
 2505	 12.2400	  6.0326	   9.377	 150.295
 2508	 12.2000	  6.0476	   9.392	 150.475
 2511	 12.1600	  6.0626	   9.407	 150.655
 2514	 12.1200	  6.0776	   9.422	 150.835
 2517	 12.0800	  6.0926	   9.438	 151.015
 2520	 12.0200	  6.1076	   9.452	 151.195
 2523	 11.3200	  6.1289	   9.474	 151.375
 2526	  0.0600	  6.1451	   9.490	 151.555
 2529	  0.0600	  6.1601	   9.505	 151.735
 2532	  0.0600	  6.1751	   9.520	 151.915
 2535	  0.0600	  6.1901	   9.535	 152.095
 2538	  0.0600	  6.2051	   9.550	 152.275
 2541	  0.0600	  6.2201	   9.565	 152.455
 2544	  0.0600	  6.2351	   9.580	 152.635
 2547	  0.0600	  6.2514	   9.596	 152.815
 2550	  0.0600	  6.2664	   9.611	 152.995
 2553	  0.0600	  6.2814	   9.626	 153.175
 2556	  0.0600	  6.2964	   9.641	 153.355
 2559	  0.0600	  6.3114	   9.656	 153.535
 2562	  0.0600	  6.3264	   9.671	 153.715
 2565	  0.0600	  6.3414	   9.686	 153.895
 2568	  0.0600	  6.3564	   9.701	 154.075
 2571	  0.0600	  6.3714	   9.716	 154.255
 2574	  0.0600	  6.3864	   9.731	 154.435
 2577	  0.0600	  6.4014	   9.746	 154.615
 2580	  0.0600	  6.4164	   9.761	 154.795
 2583	  0.0600	  6.4314	   9.776	 154.975
 2586	  0.0600	  6.4464	   9.791	 155.155
 2589	  0.0600	  6.4614	   9.806	 155.335
 2592	  0.0600	  6.4764	   9.821	 155.515
 2595	  0.0600	  6.4914	   9.836	 155.695
 2598	  0.0600	  6.5064	   9.851	 155.875
 2599	  0.0600	  6.5114	   9.856	 155.935
ControlMode:	0
Rate:	  5.0000
(null)
4
step	1
0
5.000000
0.000000
1
1
0.500000
2
step	2
1
5.000000
0.000000
1
1
2.000000
3
step	3
5
2.000000
0.000000
1
0
30
4
step	4
8
0.000000
0.000000
0
0
0.000000
0
2