File: Experimento 4/Resultados Experimento 4-20210423/arquivos txt/AluminioSolubilizado.txt
0
Diameter:	   8.00
   1.00
Area:	  50.2655
GaugeLength:	  50.00
2009-1-1
al solu
001
DataNumber:	3395
index	Load(kN)	Defor(mm)	Stroke(mm)	Time(s)
    0	  0.0000	  0.0000	   0.000	   0.000
    3	  0.0000	  0.0000	   0.001	   0.175
    6	  0.0800	  0.0020	   0.015	   0.355
    9	  0.1600	  0.0020	   0.029	   0.535
   12	  0.1600	  0.0020	   0.045	   0.715
   15	  0.1600	  0.0020	   0.059	   0.895
   18	  0.1800	  0.0020	   0.074	   1.075
   21	  0.2800	  0.0060	   0.089	   1.255
   24	  0.3800	  0.0080	   0.104	   1.435
   27	  0.3600	  0.0080	   0.119	   1.615
   30	  0.3800	  0.0080	   0.134	   1.795
   33	  0.3800	  0.0100	   0.149	   1.975
   36	  0.4000	  0.0100	   0.164	   2.155
   39	  0.4200	  0.0100	   0.179	   2.335
   42	  0.4400	  0.0100	   0.194	   2.515
   45	  0.4600	  0.0120	   0.206	   2.695
   48	  0.4800	  0.0120	   0.221	   2.875
   51	  0.5000	  0.0120	   0.236	   3.055
   54	  0.5000	  0.0120	   0.251	   3.235
   57	  0.5400	  0.0140	   0.266	   3.415
   60	  0.5400	  0.0140	   0.281	   3.595
   63	  0.5800	  0.0140	   0.296	   3.775
   66	  0.6000	  0.0140	   0.311	   3.955
   69	  0.6200	  0.0160	   0.326	   4.135
   72	  0.6400	  0.0160	   0.341	   4.315
   75	  0.6600	  0.0160	   0.356	   4.495
   78	  0.6800	  0.0160	   0.371	   4.675
   81	  0.7000	  0.0180	   0.386	   4.855
   84	  0.7400	  0.0180	   0.401	   5.035
   87	  0.7600	  0.0180	   0.416	   5.215
   90	  0.7600	  0.0180	   0.433	   5.395
   93	  0.7800	  0.0180	   0.446	   5.575
   96	  0.8200	  0.0200	   0.462	   5.755
   99	  0.8400	  0.0200	   0.476	   5.935
  102	  0.8600	  0.0200	   0.491	   6.115
  105	  0.8800	  0.0200	   0.506	   6.295
  108	  0.9000	  0.0200	   0.521	   6.475
  111	  0.9200	  0.0200	   0.536	   6.655
  114	  0.9400	  0.0220	   0.551	   6.835
  117	  0.9600	  0.0220	   0.566	   7.015
  120	  0.9800	  0.0220	   0.581	   7.195
  123	  1.0000	  0.0220	   0.596	   7.375
  126	  1.0200	  0.0220	   0.611	   7.555
  129	  1.0400	  0.0240	   0.626	   7.735
  132	  1.0600	  0.0240	   0.641	   7.915
  135	  1.0800	  0.0240	   0.656	   8.095
  138	  1.1000	  0.0240	   0.671	   8.275
  141	  1.1200	  0.0260	   0.686	   8.455
  144	  1.1600	  0.0260	   0.701	   8.635
  147	  1.1800	  0.0260	   0.716	   8.815
  150	  1.2000	  0.0260	   0.731	   8.995
  153	  1.2200	  0.0260	   0.746	   9.175
  156	  1.2400	  0.0260	   0.761	   9.355
  159	  1.2600	  0.0260	   0.776	   9.535
  162	  1.3000	  0.0280	   0.791	   9.715
  165	  1.3200	  0.0280	   0.805	   9.895
  168	  1.3400	  0.0280	   0.821	  10.075
  171	  1.3600	  0.0280	   0.836	  10.255
  174	  1.3800	  0.0280	   0.851	  10.435
  177	  1.4200	  0.0280	   0.865	  10.615
  180	  1.4400	  0.0300	   0.881	  10.795
  183	  1.4600	  0.0300	   0.895	  10.975
  186	  1.4800	  0.0300	   0.910	  11.155
  189	  1.5200	  0.0300	   0.925	  11.335
  192	  1.5400	  0.0300	   0.940	  11.515
  195	  1.5800	  0.0300	   0.955	  11.695
  198	  1.6000	  0.0300	   0.970	  11.875
  201	  1.6200	  0.0300	   0.985	  12.055
  204	  1.6600	  0.0320	   1.001	  12.235
  207	  1.6800	  0.0320	   1.015	  12.415
  210	  1.7200	  0.0320	   1.031	  12.595
  213	  1.7400	  0.0340	   1.045	  12.775
  216	  1.7600	  0.0340	   1.060	  12.955
  219	  1.8000	  0.0340	   1.075	  13.135
  222	  1.8200	  0.0340	   1.090	  13.315
  225	  1.8600	  0.0360	   1.105	  13.495
  228	  1.8800	  0.0360	   1.120	  13.675
  231	  1.9200	  0.0360	   1.135	  13.855
  234	  1.9600	  0.0360	   1.150	  14.035
  237	  1.9800	  0.0380	   1.165	  14.215
  240	  2.0200	  0.0380	   1.180	  14.395
  243	  2.0600	  0.0380	   1.195	  14.575
  246	  2.0800	  0.0400	   1.210	  14.755
  249	  2.1200	  0.0400	   1.225	  14.935
  252	  2.1600	  0.0400	   1.240	  15.115
  255	  2.2000	  0.0400	   1.255	  15.295
  258	  2.2200	  0.0420	   1.270	  15.475
  261	  2.2600	  0.0420	   1.285	  15.655
  264	  2.3000	  0.0420	   1.300	  15.835
  267	  2.3400	  0.0420	   1.315	  16.015
  270	  2.3800	  0.0440	   1.330	  16.195
  273	  2.4200	  0.0440	   1.345	  16.375
  276	  2.4600	  0.0440	   1.360	  16.555
  279	  2.4800	  0.0460	   1.374	  16.735
  282	  2.5200	  0.0460	   1.390	  16.915
  285	  2.5800	  0.0460	   1.405	  17.095
  288	  2.6000	  0.0480	   1.420	  17.275
  291	  2.6600	  0.0480	   1.435	  17.455
  294	  2.7000	  0.0500	   1.450	  17.635
  297	  2.7400	  0.0500	   1.465	  17.815
  300	  2.7800	  0.0500	   1.480	  17.995
  303	  2.8200	  0.0520	   1.495	  18.175
  306	  2.8600	  0.0520	   1.510	  18.355
  309	  2.9000	  0.0520	   1.525	  18.535
  312	  2.9400	  0.0540	   1.540	  18.715
  315	  3.0000	  0.0540	   1.555	  18.895
  318	  3.0400	  0.0560	   1.570	  19.075
  321	  3.0800	  0.0560	   1.585	  19.255
  324	  3.1200	  0.0580	   1.600	  19.435
  327	  3.1600	  0.0580	   1.615	  19.615
  330	  3.2000	  0.0600	   1.629	  19.795
  333	  3.2600	  0.0600	   1.644	  19.975
  336	  3.3000	  0.0620	   1.659	  20.155
  339	  3.3400	  0.0620	   1.675	  20.335
  342	  3.4000	  0.0620	   1.690	  20.515
  345	  3.4400	  0.0640	   1.705	  20.695
  348	  3.4800	  0.0660	   1.720	  20.875
  351	  3.5400	  0.0660	   1.735	  21.055
  354	  3.5800	  0.0680	   1.750	  21.235
  357	  3.6200	  0.0680	   1.765	  21.415
  360	  3.6800	  0.0700	   1.780	  21.595
  363	  3.7200	  0.0700	   1.795	  21.775
  366	  3.7600	  0.0720	   1.810	  21.955
  369	  3.8200	  0.0740	   1.825	  22.135
  372	  3.8600	  0.0740	   1.840	  22.315
  375	  3.9200	  0.0760	   1.855	  22.495
  378	  3.9600	  0.0760	   1.870	  22.675
  381	  4.0000	  0.0780	   1.885	  22.855
  384	  4.0600	  0.0780	   1.900	  23.035
  387	  4.1000	  0.0820	   1.915	  23.215
  390	  4.1600	  0.0820	   1.930	  23.395
  393	  4.2000	  0.0840	   1.945	  23.575
  396	  4.2400	  0.0860	   1.960	  23.755
  399	  4.3000	  0.0880	   1.975	  23.935
  402	  4.3400	  0.0900	   1.990	  24.115
  405	  4.3800	  0.0920	   2.005	  24.295
  408	  4.4200	  0.0960	   2.020	  24.475
  411	  4.4800	  0.1000	   2.035	  24.655
  414	  4.5200	  0.1020	   2.050	  24.835
  417	  4.5600	  0.1060	   2.065	  25.015
  420	  4.5800	  0.1120	   2.080	  25.195
  423	  4.6200	  0.1160	   2.095	  25.375
  426	  4.6600	  0.1220	   2.110	  25.555
  429	  4.6800	  0.1280	   2.125	  25.735
  432	  4.7200	  0.1340	   2.140	  25.915
  435	  4.7600	  0.1400	   2.155	  26.095
  438	  4.7800	  0.1460	   2.170	  26.275
  441	  4.8200	  0.1520	   2.184	  26.455
  444	  4.8400	  0.1580	   2.200	  26.635
  447	  4.8800	  0.1640	   2.215	  26.815
  450	  4.9000	  0.1720	   2.230	  26.995
  453	  4.9200	  0.1780	   2.245	  27.175
  456	  4.9600	  0.1860	   2.260	  27.355
  459	  4.9800	  0.1920	   2.275	  27.535
  462	  5.0200	  0.2000	   2.290	  27.715
  465	  5.0400	  0.2080	   2.305	  27.895
  468	  5.0600	  0.2160	   2.320	  28.075
  471	  5.1000	  0.2220	   2.335	  28.255
  474	  5.1000	  0.2280	   2.350	  28.435
  477	  5.1200	  0.2360	   2.365	  28.615
  480	  5.1600	  0.2440	   2.380	  28.795
  483	  5.1800	  0.2520	   2.395	  28.975
  486	  5.2000	  0.2600	   2.410	  29.155
  489	  5.2200	  0.2680	   2.425	  29.335
  492	  5.2600	  0.2760	   2.440	  29.515
  495	  5.2600	  0.2840	   2.455	  29.695
  498	  5.3000	  0.2920	   2.470	  29.875
  501	  5.3200	  0.3000	   2.485	  30.055
  504	  5.3400	  0.3080	   2.500	  30.235
  507	  5.3600	  0.3160	   2.515	  30.415
  510	  5.3800	  0.3260	   2.531	  30.595
  513	  5.4000	  0.3340	   2.546	  30.775
  516	  5.4200	  0.3420	   2.561	  30.955
  519	  5.4400	  0.3500	   2.576	  31.135
  522	  5.4600	  0.3580	   2.591	  31.315
  525	  5.4800	  0.3660	   2.606	  31.495
  528	  5.5200	  0.3760	   2.621	  31.675
  531	  5.5400	  0.3840	   2.636	  31.855
  534	  5.5600	  0.3920	   2.651	  32.035
  537	  5.5800	  0.4000	   2.666	  32.215
  540	  5.6000	  0.4080	   2.681	  32.395
  543	  5.6200	  0.4180	   2.696	  32.575
  546	  5.6400	  0.4260	   2.711	  32.755
  549	  5.6600	  0.4340	   2.726	  32.935
  552	  5.6800	  0.4420	   2.741	  33.115
  555	  5.7000	  0.4520	   2.756	  33.295
  558	  5.7200	  0.4600	   2.771	  33.475
  561	  5.7400	  0.4680	   2.786	  33.655
  564	  5.7600	  0.4760	   2.803	  33.835
  567	  5.7800	  0.4860	   2.817	  34.015
  570	  5.8000	  0.4940	   2.832	  34.195
  573	  5.8200	  0.5040	   2.847	  34.375
  576	  5.8400	  0.5120	   2.862	  34.555
  579	  5.8600	  0.5200	   2.876	  34.735
  582	  5.8800	  0.5300	   2.892	  34.915
  585	  5.9000	  0.5380	   2.908	  35.095
  588	  5.9200	  0.5460	   2.922	  35.275
  591	  5.9400	  0.5560	   2.938	  35.455
  594	  5.9600	  0.5640	   2.952	  35.635
  597	  5.9800	  0.5740	   2.967	  35.815
  600	  6.0000	  0.5820	   2.982	  35.995
  603	  6.0200	  0.5900	   2.997	  36.175
  606	  6.0400	  0.6000	   3.013	  36.355
  609	  6.0600	  0.6080	   3.027	  36.535
  612	  6.0800	  0.6160	   3.043	  36.715
  615	  6.1000	  0.6260	   3.057	  36.895
  618	  6.1200	  0.6340	   3.072	  37.075
  621	  6.1400	  0.6440	   3.087	  37.255
  624	  6.1600	  0.6520	   3.102	  37.435
  627	  6.1800	  0.6620	   3.117	  37.615
  630	  6.1800	  0.6700	   3.132	  37.795
  633	  6.2000	  0.6800	   3.148	  37.975
  636	  6.2200	  0.6880	   3.162	  38.155
  639	  6.2400	  0.6960	   3.178	  38.335
  642	  6.2600	  0.7060	   3.192	  38.515
  645	  6.2800	  0.7160	   3.207	  38.695
  648	  6.3000	  0.7240	   3.222	  38.875
  651	  6.3200	  0.7340	   3.237	  39.055
  654	  6.3400	  0.7420	   3.252	  39.235
  657	  6.3600	  0.7520	   3.267	  39.415
  660	  6.3800	  0.7600	   3.283	  39.595
  663	  6.4000	  0.7700	   3.297	  39.775
  666	  6.4200	  0.7780	   3.312	  39.955
  669	  6.4200	  0.7880	   3.327	  40.135
  672	  6.4400	  0.7960	   3.342	  40.315
  675	  6.4600	  0.8060	   3.357	  40.495
  678	  6.4800	  0.8140	   3.372	  40.675
  681	  6.5000	  0.8240	   3.387	  40.855
  684	  6.5200	  0.8320	   3.402	  41.035
  687	  6.5400	  0.8400	   3.418	  41.215
  690	  6.5600	  0.8500	   3.434	  41.395
  693	  6.5800	  0.8600	   3.449	  41.575
  696	  6.5800	  0.8680	   3.464	  41.755
  699	  6.6000	  0.8780	   3.479	  41.935
  702	  6.6200	  0.8880	   3.492	  42.115
  705	  6.6400	  0.8960	   3.507	  42.295
  708	  6.6600	  0.9060	   3.523	  42.475
  711	  6.6800	  0.9140	   3.537	  42.655
  714	  6.7000	  0.9240	   3.553	  42.835
  717	  6.7200	  0.9320	   3.567	  43.015
  720	  6.7400	  0.9420	   3.582	  43.195
  723	  6.7400	  0.9500	   3.599	  43.375
  726	  6.7600	  0.9600	   3.614	  43.555
  729	  6.7800	  0.9700	   3.629	  43.735
  732	  6.8000	  0.9780	   3.644	  43.915
  735	  6.8200	  0.9880	   3.659	  44.095
  738	  6.8400	  0.9980	   3.674	  44.275
  741	  6.8400	  1.0096	   3.689	  44.455
  744	  6.8600	  1.0246	   3.704	  44.635
  747	  6.8800	  1.0396	   3.719	  44.815
  750	  6.9000	  1.0546	   3.734	  44.995
  753	  6.9200	  1.0696	   3.749	  45.175
  756	  6.9200	  1.0846	   3.764	  45.355
  759	  6.9400	  1.0996	   3.779	  45.535
  762	  6.9600	  1.1133	   3.793	  45.715
  765	  6.9800	  1.1283	   3.807	  45.895
  768	  7.0000	  1.1433	   3.822	  46.075
  771	  7.0200	  1.1596	   3.839	  46.255
  774	  7.0200	  1.1746	   3.854	  46.435
  777	  7.0400	  1.1896	   3.869	  46.615
  780	  6.9600	  1.1933	   3.872	  46.795
  783	  6.9000	  1.1933	   3.872	  46.975
  786	  6.8600	  1.1933	   3.872	  47.155
  789	  6.8400	  1.1933	   3.872	  47.335
  792	  6.8200	  1.1933	   3.872	  47.515
  795	  6.8000	  1.1933	   3.872	  47.695
  798	  6.8000	  1.1933	   3.872	  47.875
  801	  6.8000	  1.1933	   3.872	  48.055
  804	  6.7800	  1.1933	   3.872	  48.235
  807	  6.7800	  1.1933	   3.872	  48.415
  810	  6.7800	  1.1933	   3.872	  48.595
  813	  6.7800	  1.1933	   3.872	  48.775
  816	  6.7600	  1.1933	   3.872	  48.955
  819	  6.7600	  1.1933	   3.872	  49.135
  822	  6.7600	  1.1933	   3.872	  49.315
  825	  6.7600	  1.1933	   3.872	  49.495
  828	  6.7600	  1.1933	   3.872	  49.675
  831	  6.7400	  1.1933	   3.872	  49.855
  834	  6.7400	  1.1933	   3.872	  50.035
  837	  6.7400	  1.1933	   3.872	  50.215
  840	  6.7400	  1.1933	   3.872	  50.395
  843	  6.7400	  1.1933	   3.872	  50.575
  846	  6.7400	  1.1933	   3.872	  50.755
  849	  6.7400	  1.1933	   3.872	  50.935
  852	  6.7400	  1.1933	   3.872	  51.115
  855	  6.7400	  1.1933	   3.872	  51.295
  858	  6.7400	  1.1933	   3.872	  51.475
  861	  6.7400	  1.1933	   3.872	  51.655
  864	  6.7200	  1.1933	   3.872	  51.835
  867	  6.7200	  1.1933	   3.872	  52.015
  870	  6.7200	  1.1933	   3.872	  52.195
  873	  6.7200	  1.1933	   3.872	  52.375
  876	  6.7200	  1.1933	   3.872	  52.555
  879	  6.7200	  1.1933	   3.872	  52.735
  882	  6.7200	  1.1933	   3.872	  52.915
  885	  6.7200	  1.1933	   3.872	  53.095
  888	  6.7200	  1.1933	   3.872	  53.275
  891	  6.7200	  1.1933	   3.872	  53.455
  894	  6.7200	  1.1933	   3.872	  53.635
  897	  6.7200	  1.1933	   3.872	  53.815
  900	  6.7200	  1.1933	   3.872	  53.995
  903	  6.7200	  1.1933	   3.872	  54.175
  906	  6.7200	  1.1933	   3.872	  54.355
  909	  6.7200	  1.1933	   3.872	  54.535
  912	  6.7200	  1.1933	   3.872	  54.715
  915	  6.7200	  1.1933	   3.872	  54.895
  918	  6.7200	  1.1933	   3.872	  55.075
  921	  6.7200	  1.1933	   3.872	  55.255
  924	  6.7000	  1.1933	   3.872	  55.435
  927	  6.7000	  1.1933	   3.872	  55.615
  930	  6.7000	  1.1933	   3.872	  55.795
  933	  6.7000	  1.1933	   3.872	  55.975
  936	  6.7000	  1.1933	   3.872	  56.155
  939	  6.7000	  1.1933	   3.872	  56.335
  942	  6.7000	  1.1933	   3.872	  56.515
  945	  6.7000	  1.1933	   3.872	  56.695
  948	  6.7000	  1.1933	   3.872	  56.875
  951	  6.7000	  1.1933	   3.872	  57.055
  954	  6.7000	  1.1933	   3.872	  57.235
  957	  6.7000	  1.1946	   3.874	  57.415
  960	  6.7000	  1.1946	   3.874	  57.595
  963	  6.7000	  1.1946	   3.874	  57.775
  966	  6.7000	  1.1946	   3.874	  57.955
  969	  6.7000	  1.1946	   3.874	  58.135
  972	  6.7000	  1.1946	   3.874	  58.315
  975	  6.7000	  1.1946	   3.874	  58.495
  978	  6.7000	  1.1946	   3.874	  58.675
  981	  6.7000	  1.1946	   3.874	  58.855
  984	  6.7000	  1.1946	   3.874	  59.035
  987	  6.7000	  1.1946	   3.874	  59.215
  990	  6.7000	  1.1946	   3.874	  59.395
  993	  6.7000	  1.1946	   3.874	  59.575
  996	  6.7000	  1.1946	   3.874	  59.755
  999	  6.7000	  1.1946	   3.874	  59.935
 1002	  6.7000	  1.1946	   3.874	  60.115
 1005	  6.7000	  1.1946	   3.874	  60.295
 1008	  6.7000	  1.1946	   3.874	  60.475
 1011	  6.7000	  1.1946	   3.874	  60.655
 1014	  6.7000	  1.1946	   3.874	  60.835
 1017	  6.7000	  1.1946	   3.874	  61.015
 1020	  6.7000	  1.1946	   3.874	  61.195
 1023	  6.7000	  1.1946	   3.874	  61.375
 1026	  6.7000	  1.1946	   3.874	  61.555
 1029	  6.7000	  1.1946	   3.874	  61.735
 1032	  6.7000	  1.1946	   3.874	  61.915
 1035	  6.6800	  1.1946	   3.874	  62.095
 1038	  6.7000	  1.1946	   3.874	  62.275
 1041	  6.7000	  1.1946	   3.874	  62.455
 1044	  6.7000	  1.1946	   3.874	  62.635
 1047	  6.7000	  1.1946	   3.874	  62.815
 1050	  6.6800	  1.1946	   3.874	  62.995
 1053	  6.6800	  1.1946	   3.874	  63.175
 1056	  6.7000	  1.1946	   3.874	  63.355
 1059	  6.6800	  1.1946	   3.874	  63.535
 1062	  6.6800	  1.1946	   3.874	  63.715
 1065	  6.6800	  1.1946	   3.874	  63.895
 1068	  6.6800	  1.1946	   3.874	  64.075
 1071	  6.6800	  1.1946	   3.874	  64.255
 1074	  6.6800	  1.1946	   3.874	  64.435
 1077	  6.6800	  1.1946	   3.874	  64.615
 1080	  6.6800	  1.1946	   3.874	  64.795
 1083	  6.6800	  1.1946	   3.874	  64.975
 1086	  6.6800	  1.1946	   3.874	  65.155
 1089	  6.6800	  1.1946	   3.874	  65.335
 1092	  6.6800	  1.1946	   3.874	  65.515
 1095	  6.6800	  1.1946	   3.874	  65.695
 1098	  6.6800	  1.1946	   3.874	  65.875
 1101	  6.6800	  1.1946	   3.874	  66.055
 1104	  6.6800	  1.1946	   3.874	  66.235
 1107	  6.6800	  1.1946	   3.874	  66.415
 1110	  6.6800	  1.1946	   3.874	  66.595
 1113	  6.6800	  1.1946	   3.874	  66.775
 1116	  6.6800	  1.1946	   3.874	  66.955
 1119	  6.6800	  1.1946	   3.874	  67.135
 1122	  6.6800	  1.1946	   3.874	  67.315
 1125	  6.6800	  1.1946	   3.874	  67.495
 1128	  6.6800	  1.1946	   3.874	  67.675
 1131	  6.6800	  1.1946	   3.874	  67.855
 1134	  6.6800	  1.1946	   3.874	  68.035
 1137	  6.6800	  1.1946	   3.874	  68.215
 1140	  6.6800	  1.1946	   3.874	  68.395
 1143	  6.6800	  1.1946	   3.874	  68.575
 1146	  6.6800	  1.1946	   3.874	  68.755
 1149	  6.6800	  1.1946	   3.874	  68.935
 1152	  6.6800	  1.1946	   3.874	  69.115
 1155	  6.6800	  1.1946	   3.874	  69.295
 1158	  6.6800	  1.1946	   3.874	  69.475
 1161	  6.6800	  1.1946	   3.874	  69.655
 1164	  6.6800	  1.1946	   3.874	  69.835
 1167	  6.6800	  1.1946	   3.874	  70.015
 1170	  6.6800	  1.1946	   3.874	  70.195
 1173	  6.7600	  1.2008	   3.880	  70.375
 1176	  7.0800	  1.2158	   3.895	  70.555
 1179	  7.2200	  1.2308	   3.910	  70.735
 1182	  7.3200	  1.2458	   3.925	  70.915
 1185	  7.3400	  1.2608	   3.940	  71.095
 1188	  7.3600	  1.2758	   3.955	  71.275
 1191	  7.4000	  1.2908	   3.970	  71.455
 1194	  7.4400	  1.3058	   3.985	  71.635
 1197	  7.4800	  1.3208	   4.000	  71.815
 1200	  7.5200	  1.3358	   4.015	  71.995
 1203	  7.5400	  1.3508	   4.030	  72.175
 1206	  7.4400	  1.3658	   4.045	  72.355
 1209	  7.4200	  1.3808	   4.060	  72.535
 1212	  7.4200	  1.3958	   4.075	  72.715
 1215	  7.4200	  1.4108	   4.090	  72.895
 1218	  7.4200	  1.4258	   4.105	  73.075
 1221	  7.4200	  1.4408	   4.120	  73.255
 1224	  7.4200	  1.4558	   4.135	  73.435
 1227	  7.4200	  1.4708	   4.150	  73.615
 1230	  7.4200	  1.4858	   4.165	  73.795
 1233	  7.4200	  1.5008	   4.180	  73.975
 1236	  7.4000	  1.5158	   4.195	  74.155
 1239	  7.4200	  1.5308	   4.210	  74.335
 1242	  7.4200	  1.5458	   4.225	  74.515
 1245	  7.4200	  1.5608	   4.240	  74.695
 1248	  7.4200	  1.5758	   4.255	  74.875
 1251	  7.4400	  1.5908	   4.270	  75.055
 1254	  7.4400	  1.6058	   4.285	  75.235
 1257	  7.4400	  1.6208	   4.300	  75.415
 1260	  7.4400	  1.6358	   4.315	  75.595
 1263	  7.4400	  1.6508	   4.330	  75.775
 1266	  7.4400	  1.6658	   4.345	  75.955
 1269	  7.4200	  1.6808	   4.360	  76.135
 1272	  7.4000	  1.6958	   4.375	  76.315
 1275	  7.4400	  1.7108	   4.390	  76.495
 1278	  7.5200	  1.7258	   4.405	  76.675
 1281	  7.5800	  1.7408	   4.420	  76.855
 1284	  7.6400	  1.7558	   4.435	  77.035
 1287	  7.6800	  1.7708	   4.450	  77.215
 1290	  7.7000	  1.7858	   4.465	  77.395
 1293	  7.7200	  1.8008	   4.480	  77.575
 1296	  7.7400	  1.8158	   4.495	  77.755
 1299	  7.7400	  1.8308	   4.510	  77.935
 1302	  7.7600	  1.8458	   4.525	  78.115
 1305	  7.7600	  1.8608	   4.540	  78.295
 1308	  7.7800	  1.8758	   4.555	  78.475
 1311	  7.7800	  1.8921	   4.571	  78.655
 1314	  7.7800	  1.9058	   4.585	  78.835
 1317	  7.7800	  1.9221	   4.601	  79.015
 1320	  7.7800	  1.9358	   4.615	  79.195
 1323	  7.7800	  1.9521	   4.631	  79.375
 1326	  7.7800	  1.9671	   4.646	  79.555
 1329	  7.7800	  1.9821	   4.661	  79.735
 1332	  7.7800	  1.9971	   4.676	  79.915
 1335	  7.8000	  2.0121	   4.691	  80.095
 1338	  7.7800	  2.0271	   4.706	  80.275
 1341	  7.8000	  2.0421	   4.721	  80.455
 1344	  7.8200	  2.0558	   4.735	  80.635
 1347	  7.9000	  2.0708	   4.750	  80.815
 1350	  7.9400	  2.0858	   4.765	  80.995
 1353	  7.9600	  2.1008	   4.780	  81.175
 1356	  7.9800	  2.1158	   4.795	  81.355
 1359	  8.0000	  2.1308	   4.810	  81.535
 1362	  8.0200	  2.1458	   4.825	  81.715
 1365	  8.0600	  2.1608	   4.840	  81.895
 1368	  8.0800	  2.1758	   4.855	  82.075
 1371	  8.0800	  2.1908	   4.870	  82.255
 1374	  8.1000	  2.2058	   4.885	  82.435
 1377	  8.0800	  2.2208	   4.900	  82.615
 1380	  8.0800	  2.2358	   4.915	  82.795
 1383	  8.1000	  2.2508	   4.930	  82.975
 1386	  8.1000	  2.2658	   4.945	  83.155
 1389	  8.1000	  2.2821	   4.961	  83.335
 1392	  8.1200	  2.2958	   4.975	  83.515
 1395	  8.1000	  2.3121	   4.991	  83.695
 1398	  8.1000	  2.3271	   5.006	  83.875
 1401	  8.1000	  2.3421	   5.021	  84.055
 1404	  8.1000	  2.3571	   5.036	  84.235
 1407	  8.1200	  2.3721	   5.051	  84.415
 1410	  8.1200	  2.3871	   5.066	  84.595
 1413	  8.1400	  2.4021	   5.081	  84.775
 1416	  8.1400	  2.4171	   5.096	  84.955
 1419	  8.1200	  2.4321	   5.111	  85.135
 1422	  8.1800	  2.4471	   5.126	  85.315
 1425	  8.2200	  2.4621	   5.141	  85.495
 1428	  8.2600	  2.4771	   5.156	  85.675
 1431	  8.3000	  2.4921	   5.171	  85.855
 1434	  8.3200	  2.5071	   5.186	  86.035
 1437	  8.3400	  2.5221	   5.201	  86.215
 1440	  8.3600	  2.5371	   5.216	  86.395
 1443	  8.3800	  2.5521	   5.231	  86.575
 1446	  8.3800	  2.5671	   5.246	  86.755
 1449	  8.4000	  2.5821	   5.261	  86.935
 1452	  8.4000	  2.5971	   5.276	  87.115
 1455	  8.2800	  2.6121	   5.291	  87.295
 1458	  8.3000	  2.6271	   5.306	  87.475
 1461	  8.3400	  2.6421	   5.321	  87.655
 1464	  8.3600	  2.6571	   5.336	  87.835
 1467	  8.3800	  2.6721	   5.351	  88.015
 1470	  8.4000	  2.6871	   5.366	  88.195
 1473	  8.4200	  2.7021	   5.381	  88.375
 1476	  8.4200	  2.7171	   5.396	  88.555
 1479	  8.4400	  2.7321	   5.411	  88.735
 1482	  8.4400	  2.7471	   5.426	  88.915
 1485	  8.4400	  2.7633	   5.443	  89.095
 1488	  8.4400	  2.7783	   5.457	  89.275
 1491	  8.4600	  2.7933	   5.472	  89.455
 1494	  8.4800	  2.8083	   5.487	  89.635
 1497	  8.5200	  2.8233	   5.503	  89.815
 1500	  8.5600	  2.8383	   5.517	  89.995
 1503	  8.5800	  2.8533	   5.532	  90.175
 1506	  8.6000	  2.8683	   5.547	  90.355
 1509	  8.6200	  2.8833	   5.562	  90.535
 1512	  8.6200	  2.8983	   5.577	  90.715
 1515	  8.5800	  2.9133	   5.592	  90.895
 1518	  8.5400	  2.9283	   5.608	  91.075
 1521	  8.5800	  2.9433	   5.622	  91.255
 1524	  8.6000	  2.9583	   5.637	  91.435
 1527	  8.6200	  2.9733	   5.652	  91.615
 1530	  8.6400	  2.9883	   5.668	  91.795
 1533	  8.6600	  3.0033	   5.682	  91.975
 1536	  8.6600	  3.0183	   5.697	  92.155
 1539	  8.6800	  3.0333	   5.713	  92.335
 1542	  8.7000	  3.0483	   5.727	  92.515
 1545	  8.7000	  3.0633	   5.742	  92.695
 1548	  8.6800	  3.0783	   5.757	  92.875
 1551	  8.6800	  3.0933	   5.773	  93.055
 1554	  8.7200	  3.1083	   5.787	  93.235
 1557	  8.7600	  3.1246	   5.804	  93.415
 1560	  8.7800	  3.1396	   5.819	  93.595
 1563	  8.8200	  3.1546	   5.834	  93.775
 1566	  8.8200	  3.1696	   5.849	  93.955
 1569	  8.7800	  3.1846	   5.864	  94.135
 1572	  8.7000	  3.1996	   5.879	  94.315
 1575	  8.7200	  3.2146	   5.894	  94.495
 1578	  8.7400	  3.2296	   5.909	  94.675
 1581	  8.7600	  3.2446	   5.924	  94.855
 1584	  8.7800	  3.2596	   5.939	  95.035
 1587	  8.7800	  3.2746	   5.954	  95.215
 1590	  8.8000	  3.2896	   5.969	  95.395
 1593	  8.8200	  3.3046	   5.984	  95.575
 1596	  8.8400	  3.3196	   5.999	  95.755
 1599	  8.8400	  3.3346	   6.014	  95.935
 1602	  8.8800	  3.3496	   6.029	  96.115
 1605	  8.8800	  3.3646	   6.044	  96.295
 1608	  8.9000	  3.3796	   6.059	  96.475
 1611	  8.9200	  3.3946	   6.074	  96.655
 1614	  8.9200	  3.4108	   6.090	  96.835
 1617	  8.9200	  3.4258	   6.105	  97.015
 1620	  8.9200	  3.4408	   6.120	  97.195
 1623	  8.9200	  3.4558	   6.135	  97.375
 1626	  8.9600	  3.4708	   6.150	  97.555
 1629	  8.9800	  3.4858	   6.165	  97.735
 1632	  9.0200	  3.5008	   6.180	  97.915
 1635	  9.0400	  3.5158	   6.195	  98.095
 1638	  9.0600	  3.5308	   6.210	  98.275
 1641	  9.0600	  3.5458	   6.225	  98.455
 1644	  9.0800	  3.5608	   6.240	  98.635
 1647	  9.1000	  3.5758	   6.255	  98.815
 1650	  9.1200	  3.5908	   6.270	  98.995
 1653	  9.1400	  3.6058	   6.285	  99.175
 1656	  9.1400	  3.6196	   6.299	  99.355
 1659	  9.1200	  3.6346	   6.314	  99.535
 1662	  9.0800	  3.6496	   6.329	  99.715
 1665	  9.0600	  3.6646	   6.344	  99.895
 1668	  9.0800	  3.6796	   6.359	 100.075
 1671	  9.1000	  3.6946	   6.374	 100.255
 1674	  9.1000	  3.7096	   6.389	 100.435
 1677	  9.1200	  3.7246	   6.404	 100.615
 1680	  9.0800	  3.7396	   6.419	 100.795
 1683	  9.0600	  3.7546	   6.434	 100.975
 1686	  9.0800	  3.7696	   6.449	 101.155
 1689	  9.1000	  3.7846	   6.464	 101.335
 1692	  9.1000	  3.7996	   6.479	 101.515
 1695	  9.1000	  3.8146	   6.494	 101.695
 1698	  9.1200	  3.8296	   6.509	 101.875
 1701	  9.1200	  3.8446	   6.524	 102.055
 1704	  9.1200	  3.8608	   6.540	 102.235
 1707	  9.1200	  3.8758	   6.555	 102.415
 1710	  9.1200	  3.8908	   6.570	 102.595
 1713	  9.1600	  3.9058	   6.585	 102.775
 1716	  9.2000	  3.9208	   6.600	 102.955
 1719	  9.2400	  3.9358	   6.615	 103.135
 1722	  9.2800	  3.9508	   6.630	 103.315
 1725	  9.3000	  3.9658	   6.645	 103.495
 1728	  9.3200	  3.9808	   6.660	 103.675
 1731	  9.3200	  3.9958	   6.675	 103.855
 1734	  9.2600	  4.0108	   6.690	 104.035
 1737	  9.2200	  4.0258	   6.705	 104.215
 1740	  9.2400	  4.0408	   6.720	 104.395
 1743	  9.2600	  4.0558	   6.735	 104.575
 1746	  9.2800	  4.0708	   6.750	 104.755
 1749	  9.2800	  4.0858	   6.765	 104.935
 1752	  9.3000	  4.1021	   6.781	 105.115
 1755	  9.3200	  4.1158	   6.795	 105.295
 1758	  9.3200	  4.1321	   6.811	 105.475
 1761	  9.3400	  4.1471	   6.826	 105.655
 1764	  9.3400	  4.1621	   6.841	 105.835
 1767	  9.3600	  4.1758	   6.855	 106.015
 1770	  9.3600	  4.1921	   6.871	 106.195
 1773	  9.3800	  4.2058	   6.885	 106.375
 1776	  9.3800	  4.2221	   6.901	 106.555
 1779	  9.3800	  4.2371	   6.916	 106.735
 1782	  9.3600	  4.2521	   6.931	 106.915
 1785	  9.3800	  4.2671	   6.946	 107.095
 1788	  9.4000	  4.2821	   6.961	 107.275
 1791	  9.4200	  4.2971	   6.976	 107.455
 1794	  9.4200	  4.3121	   6.991	 107.635
 1797	  9.4200	  4.3271	   7.006	 107.815
 1800	  9.4000	  4.3421	   7.021	 107.995
 1803	  9.4000	  4.3571	   7.036	 108.175
 1806	  9.4000	  4.3721	   7.051	 108.355
 1809	  9.4400	  4.3871	   7.066	 108.535
 1812	  9.4600	  4.4021	   7.081	 108.715
 1815	  9.4800	  4.4171	   7.096	 108.895
 1818	  9.5000	  4.4321	   7.111	 109.075
 1821	  9.5000	  4.4471	   7.126	 109.255
 1824	  9.5200	  4.4633	   7.142	 109.435
 1827	  9.5200	  4.4783	   7.157	 109.615
 1830	  9.5400	  4.4933	   7.172	 109.795
 1833	  9.5400	  4.5083	   7.188	 109.975
 1836	  9.5600	  4.5233	   7.202	 110.155
 1839	  9.5600	  4.5383	   7.217	 110.335
 1842	  9.5800	  4.5533	   7.233	 110.515
 1845	  9.5800	  4.5683	   7.247	 110.695
 1848	  9.5800	  4.5833	   7.262	 110.875
 1851	  9.6000	  4.5983	   7.277	 111.055
 1854	  9.6000	  4.6133	   7.293	 111.235
 1857	  9.6000	  4.6283	   7.307	 111.415
 1860	  9.6200	  4.6433	   7.322	 111.595
 1863	  9.6200	  4.6583	   7.337	 111.775
 1866	  9.6200	  4.6733	   7.352	 111.955
 1869	  9.6400	  4.6883	   7.367	 112.135
 1872	  9.6400	  4.7033	   7.382	 112.315
 1875	  9.6400	  4.7183	   7.398	 112.495
 1878	  9.6600	  4.7333	   7.412	 112.675
 1881	  9.6600	  4.7483	   7.427	 112.855
 1884	  9.6600	  4.7646	   7.444	 113.035
 1887	  9.5200	  4.7796	   7.459	 113.215
 1890	  9.5000	  4.7946	   7.474	 113.395
 1893	  9.5400	  4.8096	   7.489	 113.575
 1896	  9.5600	  4.8246	   7.504	 113.755
 1899	  9.5600	  4.8396	   7.519	 113.935
 1902	  9.5800	  4.8546	   7.534	 114.115
 1905	  9.6000	  4.8696	   7.549	 114.295
 1908	  9.6000	  4.8846	   7.564	 114.475
 1911	  9.6200	  4.8996	   7.579	 114.655
 1914	  9.6400	  4.9146	   7.594	 114.835
 1917	  9.6400	  4.9296	   7.609	 115.015
 1920	  9.6600	  4.9446	   7.624	 115.195
 1923	  9.6600	  4.9596	   7.639	 115.375
 1926	  9.6400	  4.9746	   7.654	 115.555
 1929	  9.6400	  4.9896	   7.669	 115.735
 1932	  9.6600	  5.0046	   7.684	 115.915
 1935	  9.6800	  5.0196	   7.699	 116.095
 1938	  9.7000	  5.0346	   7.714	 116.275
 1941	  9.7200	  5.0508	   7.730	 116.455
 1944	  9.7200	  5.0658	   7.745	 116.635
 1947	  9.7200	  5.0808	   7.760	 116.815
 1950	  9.7200	  5.0958	   7.775	 116.995
 1953	  9.7400	  5.1108	   7.790	 117.175
 1956	  9.7600	  5.1258	   7.805	 117.355
 1959	  9.8000	  5.1408	   7.820	 117.535
 1962	  9.8200	  5.1558	   7.835	 117.715
 1965	  9.8400	  5.1708	   7.850	 117.895
 1968	  9.8400	  5.1858	   7.865	 118.075
 1971	  9.8600	  5.2008	   7.880	 118.255
 1974	  9.8800	  5.2158	   7.895	 118.435
 1977	  9.8800	  5.2308	   7.910	 118.615
 1980	  9.8800	  5.2458	   7.925	 118.795
 1983	  9.9000	  5.2608	   7.940	 118.975
 1986	  9.9000	  5.2758	   7.955	 119.155
 1989	  9.9000	  5.2908	   7.970	 119.335
 1992	  9.9000	  5.3058	   7.985	 119.515
 1995	  9.9000	  5.3208	   8.000	 119.695
 1998	  9.9000	  5.3358	   8.015	 119.875
 2001	  9.8800	  5.3508	   8.030	 120.055
 2004	  9.8800	  5.3658	   8.045	 120.235
 2007	  9.8800	  5.3821	   8.061	 120.415
 2010	  9.8600	  5.3958	   8.075	 120.595
 2013	  9.8400	  5.4121	   8.091	 120.775
 2016	  9.8400	  5.4271	   8.106	 120.955
 2019	  9.8200	  5.4421	   8.121	 121.135
 2022	  9.8200	  5.4571	   8.136	 121.315
 2025	  9.8000	  5.4721	   8.151	 121.495
 2028	  9.8000	  5.4871	   8.166	 121.675
 2031	  9.7800	  5.5021	   8.181	 121.855
 2034	  9.7800	  5.5171	   8.196	 122.035
 2037	  9.7800	  5.5321	   8.211	 122.215
 2040	  9.7800	  5.5446	   8.224	 122.395
 2043	  9.8000	  5.5596	   8.239	 122.575
 2046	  9.8000	  5.5746	   8.254	 122.755
 2049	  9.8200	  5.5896	   8.269	 122.935
 2052	  9.8400	  5.6046	   8.284	 123.115
 2055	  9.8600	  5.6196	   8.299	 123.295
 2058	  9.8800	  5.6346	   8.314	 123.475
 2061	  9.9000	  5.6496	   8.329	 123.655
 2064	  9.9200	  5.6646	   8.344	 123.835
 2067	  9.9200	  5.6796	   8.359	 124.015
 2070	  9.9400	  5.6946	   8.374	 124.195
 2073	  9.9600	  5.7096	   8.389	 124.375
 2076	  9.9600	  5.7246	   8.404	 124.555
 2079	  9.9600	  5.7396	   8.419	 124.735
 2082	  9.9800	  5.7558	   8.435	 124.915
 2085	  9.9800	  5.7708	   8.450	 125.095
 2088	 10.0000	  5.7858	   8.465	 125.275
 2091	 10.0000	  5.8008	   8.480	 125.455
 2094	 10.0200	  5.8158	   8.495	 125.635
 2097	 10.0200	  5.8308	   8.510	 125.815
 2100	 10.0200	  5.8458	   8.525	 125.995
 2103	 10.0400	  5.8608	   8.540	 126.175
 2106	 10.0400	  5.8758	   8.555	 126.355
 2109	 10.0400	  5.8908	   8.570	 126.535
 2112	 10.0600	  5.9058	   8.585	 126.715
 2115	 10.0600	  5.9208	   8.600	 126.895
 2118	 10.0600	  5.9358	   8.615	 127.075
 2121	 10.0800	  5.9521	   8.631	 127.255
 2124	 10.0800	  5.9658	   8.645	 127.435
 2127	 10.0800	  5.9821	   8.661	 127.615
 2130	 10.0800	  5.9971	   8.676	 127.795
 2133	 10.1000	  6.0121	   8.691	 127.975
 2136	 10.1000	  6.0271	   8.706	 128.155
 2139	 10.1000	  6.0421	   8.721	 128.335
 2142	 10.1200	  6.0571	   8.736	 128.515
 2145	 10.1200	  6.0721	   8.751	 128.695
 2148	 10.1200	  6.0871	   8.766	 128.875
 2151	 10.1200	  6.1021	   8.781	 129.055
 2154	 10.1200	  6.1171	   8.796	 129.235
 2157	 10.1400	  6.1321	   8.811	 129.415
 2160	 10.1400	  6.1471	   8.826	 129.595
 2163	 10.1400	  6.1621	   8.841	 129.775
 2166	 10.1400	  6.1771	   8.856	 129.955
 2169	 10.1400	  6.1921	   8.871	 130.135
 2172	 10.1400	  6.2083	   8.887	 130.315
 2175	 10.1400	  6.2233	   8.903	 130.495
 2178	 10.1400	  6.2383	   8.917	 130.675
 2181	 10.1400	  6.2533	   8.932	 130.855
 2184	 10.1400	  6.2683	   8.948	 131.035
 2187	 10.1400	  6.2833	   8.962	 131.215
 2190	 10.1400	  6.2983	   8.977	 131.395
 2193	 10.1400	  6.3133	   8.992	 131.575
 2196	 10.1400	  6.3283	   9.007	 131.755
 2199	 10.0800	  6.3433	   9.023	 131.935
 2202	 10.0000	  6.3583	   9.037	 132.115
 2205	 10.0000	  6.3733	   9.052	 132.295
 2208	 10.0200	  6.3883	   9.068	 132.475
 2211	 10.0400	  6.4033	   9.082	 132.655
 2214	 10.0400	  6.4183	   9.097	 132.835
 2217	 10.0400	  6.4333	   9.113	 133.015
 2220	 10.0600	  6.4483	   9.127	 133.195
 2223	 10.0600	  6.4646	   9.144	 133.375
 2226	 10.0600	  6.4796	   9.159	 133.555
 2229	 10.0800	  6.4946	   9.174	 133.735
 2232	 10.0800	  6.5096	   9.189	 133.915
 2235	 10.0800	  6.5246	   9.204	 134.095
 2238	 10.0800	  6.5396	   9.219	 134.275
 2241	 10.1000	  6.5546	   9.234	 134.455
 2244	 10.1000	  6.5696	   9.249	 134.635
 2247	 10.0800	  6.5846	   9.264	 134.815
 2250	 10.0800	  6.5996	   9.279	 134.995
 2253	 10.0800	  6.6146	   9.294	 135.175
 2256	 10.1000	  6.6296	   9.309	 135.355
 2259	 10.1200	  6.6446	   9.324	 135.535
 2262	 10.1400	  6.6596	   9.339	 135.715
 2265	 10.1600	  6.6746	   9.354	 135.895
 2268	 10.1800	  6.6896	   9.369	 136.075
 2271	 10.2200	  6.7046	   9.384	 136.255
 2274	 10.2200	  6.7196	   9.399	 136.435
 2277	 10.2400	  6.7346	   9.414	 136.615
 2280	 10.2600	  6.7496	   9.429	 136.795
 2283	 10.2800	  6.7646	   9.444	 136.975
 2286	 10.2800	  6.7808	   9.460	 137.155
 2289	 10.3000	  6.7958	   9.475	 137.335
 2292	 10.3000	  6.8108	   9.490	 137.515
 2295	 10.3200	  6.8258	   9.505	 137.695
 2298	 10.3200	  6.8408	   9.520	 137.875
 2301	 10.3200	  6.8558	   9.535	 138.055
 2304	 10.3400	  6.8708	   9.550	 138.235
 2307	 10.3400	  6.8858	   9.565	 138.415
 2310	 10.3400	  6.9008	   9.580	 138.595
 2313	 10.3400	  6.9158	   9.595	 138.775
 2316	 10.3400	  6.9308	   9.610	 138.955
 2319	 10.3400	  6.9458	   9.625	 139.135
 2322	 10.3400	  6.9621	   9.641	 139.315
 2325	 10.3400	  6.9758	   9.655	 139.495
 2328	 10.3400	  6.9921	   9.671	 139.675
 2331	 10.3400	  7.0071	   9.686	 139.855
 2334	 10.3400	  7.0221	   9.701	 140.035
 2337	 10.3400	  7.0371	   9.716	 140.215
 2340	 10.3400	  7.0521	   9.731	 140.395
 2343	 10.3200	  7.0671	   9.746	 140.575
 2346	 10.3200	  7.0821	   9.761	 140.755
 2349	 10.3400	  7.0971	   9.776	 140.935
 2352	 10.3600	  7.1121	   9.791	 141.115
 2355	 10.4000	  7.1271	   9.806	 141.295
 2358	 10.3600	  7.1421	   9.821	 141.475
 2361	 10.2400	  7.1571	   9.836	 141.655
 2364	 10.2000	  7.1733	   9.852	 141.835
 2367	 10.2000	  7.1883	   9.867	 142.015
 2370	 10.2000	  7.2033	   9.882	 142.195
 2373	 10.2000	  7.2183	   9.898	 142.375
 2376	 10.2000	  7.2333	   9.912	 142.555
 2379	 10.2000	  7.2483	   9.927	 142.735
 2382	 10.2000	  7.2633	   9.943	 142.915
 2385	 10.2200	  7.2783	   9.957	 143.095
 2388	 10.2200	  7.2933	   9.972	 143.275
 2391	 10.2200	  7.3083	   9.988	 143.455
 2394	 10.2200	  7.3233	  10.002	 143.635
 2397	 10.2400	  7.3383	  10.017	 143.815
 2400	 10.2400	  7.3533	  10.032	 143.995
 2403	 10.2400	  7.3696	  10.049	 144.175
 2406	 10.2400	  7.3846	  10.064	 144.355
 2409	 10.2400	  7.3996	  10.079	 144.535
 2412	 10.2600	  7.4146	  10.094	 144.715
 2415	 10.2600	  7.4296	  10.109	 144.895
 2418	 10.2600	  7.4446	  10.124	 145.075
 2421	 10.2600	  7.4596	  10.139	 145.255
 2424	 10.2600	  7.4746	  10.154	 145.435
 2427	 10.2600	  7.4896	  10.169	 145.615
 2430	 10.2800	  7.5046	  10.184	 145.795
 2433	 10.2800	  7.5196	  10.199	 145.975
 2436	 10.2800	  7.5346	  10.214	 146.155
 2439	 10.2800	  7.5496	  10.229	 146.335
 2442	 10.2800	  7.5646	  10.244	 146.515
 2445	 10.2800	  7.5796	  10.259	 146.695
 2448	 10.2800	  7.5958	  10.275	 146.875
 2451	 10.3000	  7.6108	  10.290	 147.055
 2454	 10.3000	  7.6258	  10.305	 147.235
 2457	 10.3000	  7.6408	  10.320	 147.415
 2460	 10.3000	  7.6558	  10.335	 147.595
 2463	 10.3000	  7.6708	  10.350	 147.775
 2466	 10.3200	  7.6858	  10.365	 147.955
 2469	 10.3200	  7.7008	  10.380	 148.135
 2472	 10.3200	  7.7158	  10.395	 148.315
 2475	 10.3200	  7.7308	  10.410	 148.495
 2478	 10.3200	  7.7458	  10.425	 148.675
 2481	 10.3200	  7.7608	  10.440	 148.855
 2484	 10.3200	  7.7758	  10.455	 149.035
 2487	 10.3200	  7.7908	  10.470	 149.215
 2490	 10.3200	  7.8058	  10.485	 149.395
 2493	 10.3400	  7.8208	  10.500	 149.575
 2496	 10.3400	  7.8358	  10.515	 149.755
 2499	 10.3400	  7.8521	  10.531	 149.935
 2502	 10.3400	  7.8658	  10.545	 150.115
 2505	 10.3400	  7.8821	  10.561	 150.295
 2508	 10.3400	  7.8958	  10.575	 150.475
 2511	 10.3400	  7.9121	  10.591	 150.655
 2514	 10.3400	  7.9271	  10.606	 150.835
 2517	 10.3600	  7.9421	  10.621	 151.015
 2520	 10.3600	  7.9571	  10.636	 151.195
 2523	 10.3800	  7.9721	  10.651	 151.375
 2526	 10.3800	  7.9871	  10.666	 151.555
 2529	 10.3800	  8.0021	  10.681	 151.735
 2532	 10.4000	  8.0171	  10.696	 151.915
 2535	 10.4000	  8.0321	  10.711	 152.095
 2538	 10.4000	  8.0471	  10.726	 152.275
 2541	 10.4000	  8.0621	  10.741	 152.455
 2544	 10.4000	  8.0771	  10.756	 152.635
 2547	 10.4200	  8.0933	  10.773	 152.815
 2550	 10.4200	  8.1083	  10.787	 152.995
 2553	 10.4200	  8.1233	  10.802	 153.175
 2556	 10.4200	  8.1383	  10.818	 153.355
 2559	 10.4000	  8.1533	  10.832	 153.535
 2562	 10.4000	  8.1683	  10.847	 153.715
 2565	 10.4000	  8.1833	  10.863	 153.895
 2568	 10.3800	  8.1983	  10.877	 154.075
 2571	 10.3800	  8.2133	  10.892	 154.255
 2574	 10.3800	  8.2283	  10.907	 154.435
 2577	 10.3800	  8.2433	  10.922	 154.615
 2580	 10.3600	  8.2583	  10.938	 154.795
 2583	 10.3600	  8.2733	  10.952	 154.975
 2586	 10.3600	  8.2883	  10.967	 155.155
 2589	 10.3600	  8.3046	  10.984	 155.335
 2592	 10.3600	  8.3196	  10.999	 155.515
 2595	 10.3600	  8.3346	  11.014	 155.695
 2598	 10.3600	  8.3496	  11.029	 155.875
 2601	 10.3600	  8.3646	  11.044	 156.055
 2604	 10.3400	  8.3796	  11.059	 156.235
 2607	 10.3600	  8.3946	  11.074	 156.415
 2610	 10.3600	  8.4096	  11.089	 156.595
 2613	 10.3600	  8.4246	  11.104	 156.775
 2616	 10.3600	  8.4396	  11.119	 156.955
 2619	 10.3600	  8.4546	  11.134	 157.135
 2622	 10.3600	  8.4696	  11.149	 157.315
 2625	 10.3600	  8.4846	  11.164	 157.495
 2628	 10.3800	  8.4996	  11.179	 157.675
 2631	 10.3800	  8.5146	  11.194	 157.855
 2634	 10.3800	  8.5296	  11.209	 158.035
 2637	 10.3800	  8.5458	  11.225	 158.215
 2640	 10.3800	  8.5608	  11.240	 158.395
 2643	 10.3800	  8.5758	  11.255	 158.575
 2646	 10.3800	  8.5908	  11.270	 158.755
 2649	 10.3800	  8.6058	  11.285	 158.935
 2652	 10.3800	  8.6208	  11.300	 159.115
 2655	 10.3800	  8.6358	  11.315	 159.295
 2658	 10.3800	  8.6508	  11.330	 159.475
 2661	 10.3800	  8.6658	  11.345	 159.655
 2664	 10.3800	  8.6808	  11.360	 159.835
 2667	 10.3800	  8.6958	  11.375	 160.015
 2670	 10.3800	  8.7096	  11.389	 160.195
 2673	 10.3800	  8.7246	  11.404	 160.375
 2676	 10.3800	  8.7396	  11.419	 160.555
 2679	 10.3800	  8.7546	  11.434	 160.735
 2682	 10.3800	  8.7696	  11.449	 160.915
 2685	 10.3800	  8.7846	  11.464	 161.095
 2688	 10.3800	  8.7996	  11.479	 161.275
 2691	 10.3800	  8.8146	  11.494	 161.455
 2694	 10.3800	  8.8296	  11.509	 161.635
 2697	 10.3800	  8.8446	  11.524	 161.815
 2700	 10.3800	  8.8596	  11.539	 161.995
 2703	 10.3800	  8.8746	  11.554	 162.175
 2706	 10.3800	  8.8908	  11.570	 162.355
 2709	 10.3800	  8.9058	  11.585	 162.535
 2712	 10.3800	  8.9208	  11.600	 162.715
 2715	 10.3800	  8.9358	  11.615	 162.895
 2718	 10.3800	  8.9508	  11.630	 163.075
 2721	 10.3800	  8.9658	  11.645	 163.255
 2724	 10.3800	  8.9808	  11.660	 163.435
 2727	 10.3800	  8.9958	  11.675	 163.615
 2730	 10.3600	  9.0108	  11.690	 163.795
 2733	 10.3800	  9.0258	  11.705	 163.975
 2736	 10.3600	  9.0408	  11.720	 164.155
 2739	 10.3600	  9.0558	  11.735	 164.335
 2742	 10.3600	  9.0708	  11.750	 164.515
 2745	 10.3600	  9.0858	  11.765	 164.695
 2748	 10.3600	  9.1008	  11.780	 164.875
 2751	 10.3600	  9.1158	  11.795	 165.055
 2754	 10.3600	  9.1321	  11.811	 165.235
 2757	 10.3600	  9.1458	  11.825	 165.415
 2760	 10.3600	  9.1621	  11.841	 165.595
 2763	 10.3600	  9.1758	  11.855	 165.775
 2766	 10.3400	  9.1921	  11.871	 165.955
 2769	 10.3400	  9.2058	  11.885	 166.135
 2772	 10.3400	  9.2221	  11.901	 166.315
 2775	 10.3400	  9.2358	  11.915	 166.495
 2778	 10.3400	  9.2521	  11.931	 166.675
 2781	 10.3400	  9.2658	  11.945	 166.855
 2784	 10.3400	  9.2808	  11.960	 167.035
 2787	 10.3400	  9.2958	  11.975	 167.215
 2790	 10.3400	  9.3108	  11.990	 167.395
 2793	 10.3400	  9.3258	  12.005	 167.575
 2796	 10.3200	  9.3408	  12.020	 167.755
 2799	 10.3200	  9.3558	  12.035	 167.935
 2802	 10.3200	  9.3708	  12.050	 168.115
 2805	 10.3200	  9.3858	  12.065	 168.295
 2808	 10.3200	  9.4021	  12.081	 168.475
 2811	 10.3200	  9.4158	  12.095	 168.655
 2814	 10.3200	  9.4321	  12.111	 168.835
 2817	 10.3000	  9.4471	  12.126	 169.015
 2820	 10.3000	  9.4621	  12.141	 169.195
 2823	 10.3000	  9.4771	  12.156	 169.375
 2826	 10.3000	  9.4921	  12.171	 169.555
 2829	 10.2800	  9.5071	  12.186	 169.735
 2832	 10.3000	  9.5221	  12.201	 169.915
 2835	 10.2800	  9.5371	  12.216	 170.095
 2838	 10.2800	  9.5521	  12.231	 170.275
 2841	 10.2800	  9.5671	  12.246	 170.455
 2844	 10.2800	  9.5821	  12.261	 170.635
 2847	 10.2800	  9.5971	  12.276	 170.815
 2850	 10.2600	  9.6121	  12.291	 170.995
 2853	 10.2600	  9.6271	  12.306	 171.175
 2856	 10.2600	  9.6421	  12.321	 171.355
 2859	 10.2600	  9.6571	  12.336	 171.535
 2862	 10.2600	  9.6721	  12.351	 171.715
 2865	 10.2400	  9.6871	  12.366	 171.895
 2868	 10.2400	  9.7021	  12.381	 172.075
 2871	 10.2400	  9.7171	  12.396	 172.255
 2874	 10.2400	  9.7321	  12.411	 172.435
 2877	 10.2200	  9.7471	  12.426	 172.615
 2880	 10.2200	  9.7621	  12.441	 172.795
 2883	 10.2200	  9.7771	  12.456	 172.975
 2886	 10.2200	  9.7921	  12.471	 173.155
 2889	 10.2200	  9.8071	  12.486	 173.335
 2892	 10.2000	  9.8221	  12.501	 173.515
 2895	 10.2000	  9.8371	  12.516	 173.695
 2898	 10.2000	  9.8533	  12.532	 173.875
 2901	 10.1800	  9.8683	  12.547	 174.055
 2904	 10.1800	  9.8833	  12.562	 174.235
 2907	 10.1800	  9.8983	  12.577	 174.415
 2910	 10.1800	  9.9133	  12.592	 174.595
 2913	 10.1600	  9.9283	  12.608	 174.775
 2916	 10.1600	  9.9433	  12.622	 174.955
 2919	 10.1600	  9.9583	  12.637	 175.135
 2922	 10.1600	  9.9733	  12.653	 175.315
 2925	 10.1400	  9.9871	  12.666	 175.495
 2928	 10.1400	 10.0021	  12.681	 175.675
 2931	 10.1400	 10.0171	  12.696	 175.855
 2934	 10.1400	 10.0321	  12.711	 176.035
 2937	 10.1200	 10.0471	  12.726	 176.215
 2940	 10.1200	 10.0621	  12.741	 176.395
 2943	 10.1200	 10.0771	  12.756	 176.575
 2946	 10.1200	 10.0933	  12.773	 176.755
 2949	 10.1000	 10.1083	  12.787	 176.935
 2952	 10.1000	 10.1233	  12.802	 177.115
 2955	 10.0800	 10.1383	  12.818	 177.295
 2958	 10.0800	 10.1533	  12.832	 177.475
 2961	 10.0800	 10.1683	  12.847	 177.655
 2964	 10.0600	 10.1833	  12.862	 177.835
 2967	 10.0600	 10.1983	  12.877	 178.015
 2970	 10.0600	 10.2133	  12.892	 178.195
 2973	 10.0400	 10.2283	  12.907	 178.375
 2976	 10.0400	 10.2433	  12.922	 178.555
 2979	 10.0400	 10.2583	  12.938	 178.735
 2982	 10.0200	 10.2733	  12.952	 178.915
 2985	 10.0200	 10.2883	  12.967	 179.095
 2988	 10.0000	 10.3033	  12.983	 179.275
 2991	 10.0000	 10.3183	  12.997	 179.455
 2994	 10.0000	 10.3333	  13.012	 179.635
 2997	  9.9800	 10.3483	  13.028	 179.815
 3000	  9.9800	 10.3633	  13.042	 179.995
 3003	  9.9600	 10.3783	  13.057	 180.175
 3006	  9.9600	 10.3933	  13.072	 180.355
 3009	  9.9400	 10.4083	  13.087	 180.535
 3012	  9.9400	 10.4233	  13.102	 180.715
 3015	  9.9400	 10.4383	  13.117	 180.895
 3018	  9.9200	 10.4533	  13.132	 181.075
 3021	  9.9200	 10.4683	  13.148	 181.255
 3024	  9.9000	 10.4846	  13.164	 181.435
 3027	  9.9000	 10.4996	  13.179	 181.615
 3030	  9.8800	 10.5146	  13.194	 181.795
 3033	  9.8800	 10.5296	  13.209	 181.975
 3036	  9.8600	 10.5446	  13.224	 182.155
 3039	  9.8600	 10.5596	  13.239	 182.335
 3042	  9.8400	 10.5746	  13.254	 182.515
 3045	  9.8400	 10.5896	  13.269	 182.695
 3048	  9.8200	 10.6046	  13.284	 182.875
 3051	  9.8200	 10.6196	  13.299	 183.055
 3054	  9.8000	 10.6346	  13.314	 183.235
 3057	  9.8000	 10.6496	  13.329	 183.415
 3060	  9.7800	 10.6646	  13.344	 183.595
 3063	  9.7800	 10.6796	  13.359	 183.775
 3066	  9.7600	 10.6946	  13.374	 183.955
 3069	  9.7400	 10.7096	  13.389	 184.135
 3072	  9.7400	 10.7246	  13.404	 184.315
 3075	  9.7200	 10.7396	  13.419	 184.495
 3078	  9.7200	 10.7546	  13.434	 184.675
 3081	  9.7000	 10.7696	  13.449	 184.855
 3084	  9.7000	 10.7846	  13.464	 185.035
 3087	  9.6800	 10.7996	  13.479	 185.215
 3090	  9.6600	 10.8146	  13.494	 185.395
 3093	  9.6600	 10.8296	  13.509	 185.575
 3096	  9.6400	 10.8446	  13.524	 185.755
 3099	  9.6200	 10.8608	  13.540	 185.935
 3102	  9.6200	 10.8758	  13.555	 186.115
 3105	  9.6000	 10.8908	  13.570	 186.295
 3108	  9.5800	 10.9058	  13.585	 186.475
 3111	  9.5800	 10.9208	  13.600	 186.655
 3114	  9.5600	 10.9358	  13.615	 186.835
 3117	  9.5400	 10.9508	  13.630	 187.015
 3120	  9.5400	 10.9658	  13.645	 187.195
 3123	  9.5200	 10.9796	  13.659	 187.375
 3126	  9.5000	 10.9946	  13.674	 187.555
 3129	  9.5000	 11.0096	  13.689	 187.735
 3132	  9.4800	 11.0246	  13.704	 187.915
 3135	  9.4600	 11.0396	  13.719	 188.095
 3138	  9.4400	 11.0546	  13.734	 188.275
 3141	  9.4400	 11.0708	  13.750	 188.455
 3144	  9.4200	 11.0858	  13.765	 188.635
 3147	  9.4000	 11.1008	  13.780	 188.815
 3150	  9.3800	 11.1158	  13.795	 188.995
 3153	  9.3600	 11.1308	  13.810	 189.175
 3156	  9.3600	 11.1458	  13.825	 189.355
 3159	  9.3400	 11.1608	  13.840	 189.535
 3162	  9.3200	 11.1758	  13.855	 189.715
 3165	  9.3000	 11.1908	  13.870	 189.895
 3168	  9.2800	 11.2058	  13.885	 190.075
 3171	  9.2600	 11.2208	  13.900	 190.255
 3174	  9.2600	 11.2358	  13.915	 190.435
 3177	  9.2400	 11.2508	  13.930	 190.615
 3180	  9.2200	 11.2658	  13.945	 190.795
 3183	  9.2000	 11.2808	  13.960	 190.975
 3186	  9.1800	 11.2958	  13.975	 191.155
 3189	  9.1600	 11.3121	  13.991	 191.335
 3192	  9.1400	 11.3258	  14.005	 191.515
 3195	  9.1200	 11.3421	  14.021	 191.695
 3198	  9.1000	 11.3571	  14.036	 191.875
 3201	  9.0800	 11.3721	  14.051	 192.055
 3204	  9.0800	 11.3871	  14.066	 192.235
 3207	  9.0600	 11.4021	  14.081	 192.415
 3210	  9.0400	 11.4171	  14.096	 192.595
 3213	  9.0000	 11.4321	  14.111	 192.775
 3216	  9.0000	 11.4471	  14.126	 192.955
 3219	  8.9800	 11.4621	  14.141	 193.135
 3222	  8.9600	 11.4771	  14.156	 193.315
 3225	  8.9400	 11.4921	  14.171	 193.495
 3228	  8.9200	 11.5071	  14.186	 193.675
 3231	  8.9000	 11.5221	  14.201	 193.855
 3234	  8.8800	 11.5371	  14.216	 194.035
 3237	  8.8400	 11.5521	  14.231	 194.215
 3240	  8.8200	 11.5671	  14.246	 194.395
 3243	  8.8000	 11.5821	  14.261	 194.575
 3246	  8.7800	 11.5971	  14.276	 194.755
 3249	  8.7600	 11.6121	  14.291	 194.935
 3252	  8.7400	 11.6271	  14.306	 195.115
 3255	  8.7200	 11.6421	  14.321	 195.295
 3258	  8.7000	 11.6571	  14.336	 195.475
 3261	  8.6600	 11.6721	  14.351	 195.655
 3264	  8.6600	 11.6858	  14.365	 195.835
 3267	  8.6200	 11.7021	  14.381	 196.015
 3270	  8.6000	 11.7158	  14.395	 196.195
 3273	  8.5800	 11.7321	  14.411	 196.375
 3276	  8.5600	 11.7471	  14.426	 196.555
 3279	  8.5200	 11.7621	  14.441	 196.735
 3282	  8.5000	 11.7771	  14.456	 196.915
 3285	  8.4800	 11.7921	  14.471	 197.095
 3288	  8.4600	 11.8071	  14.486	 197.275
 3291	  8.4200	 11.8221	  14.501	 197.455
 3294	  8.4000	 11.8371	  14.516	 197.635
 3297	  8.3800	 11.8521	  14.531	 197.815
 3300	  8.3400	 11.8671	  14.546	 197.995
 3303	  8.3200	 11.8821	  14.561	 198.175
 3306	  8.3000	 11.8971	  14.576	 198.355
 3309	  8.2600	 11.9121	  14.591	 198.535
 3312	  8.2400	 11.9271	  14.606	 198.715
 3315	  8.2000	 11.9421	  14.621	 198.895
 3318	  8.1800	 11.9571	  14.636	 199.075
 3321	  8.1400	 11.9733	  14.652	 199.255
 3324	  8.1000	 11.9883	  14.667	 199.435
 3327	  8.0600	 12.0033	  14.682	 199.615
 3330	  8.0200	 12.0183	  14.697	 199.795
 3333	  7.9400	 12.0333	  14.712	 199.975
 3336	  7.3400	 12.0521	  14.731	 200.155
 3339	  0.0400	 12.0658	  14.745	 200.335
 3342	  0.0400	 12.0808	  14.760	 200.515
 3345	  0.0400	 12.0958	  14.775	 200.695
 3348	  0.0400	 12.1108	  14.790	 200.875
 3351	  0.0400	 12.1258	  14.805	 201.055
 3354	  0.0400	 12.1408	  14.820	 201.235
 3357	  0.0400	 12.1558	  14.835	 201.415
 3360	  0.0400	 12.1721	  14.851	 201.595
 3363	  0.0400	 12.1858	  14.865	 201.775
 3366	  0.0400	 12.2021	  14.881	 201.955
 3369	  0.0400	 12.2171	  14.896	 202.135
 3372	  0.0400	 12.2321	  14.911	 202.315
 3375	  0.0400	 12.2471	  14.926	 202.495
 3378	  0.0400	 12.2621	  14.941	 202.675
 3381	  0.0400	 12.2771	  14.956	 202.855
 3384	  0.0400	 12.2921	  14.971	 203.035
 3387	  0.0400	 12.3071	  14.986	 203.215
 3390	  0.0400	 12.3221	  15.001	 203.395
 3393	  0.0400	 12.3371	  15.016	 203.575
 3394	  0.0400	 12.3421	  15.021	 203.635
ControlMode:	0
Rate:	  5.0000
(null)
4
step	1
0
5.000000
0.000000
1
1
0.500000
2
step	2
1
5.000000
0.000000
1
1
2.000000
3
step	3
5
2.000000
0.000000
1
0
30
4
step	4
8
0.000000
0.000000
0
0
0.000000
0
2