File: Experimento 4/Resultados Experimento 4-20210423/arquivos txt/AçoRevenido.txt
0
Diameter:	   7.90
   1.00
Area:	  49.0167
GaugeLength:	  50.00
2009-1-1
ACO REVENIDO
GRUPO3 ACO REVENIDO
DataNumber:	2647
index	Load(kN)	Defor(mm)	Stroke(mm)	Time(s)
    0	  0.0000	  0.0000	   0.000	   0.000
    3	  0.0000	  0.5100	   0.005	   0.175
    6	  0.0200	  0.5120	   0.020	   0.355
    9	  0.0600	  0.5120	   0.035	   0.535
   12	  0.0600	  0.5140	   0.050	   0.715
   15	  0.0600	  0.5140	   0.064	   0.895
   18	  0.0600	  0.5140	   0.079	   1.075
   21	  0.0600	  0.5140	   0.094	   1.255
   24	  0.0600	  0.5140	   0.109	   1.435
   27	  0.0600	  0.5140	   0.124	   1.615
   30	  0.0600	  0.5140	   0.139	   1.795
   33	  0.0600	  0.5140	   0.154	   1.975
   36	  0.0600	  0.5140	   0.169	   2.155
   39	  0.0600	  0.5140	   0.184	   2.335
   42	  0.0600	  0.5140	   0.199	   2.515
   45	  0.0600	  0.5160	   0.214	   2.695
   48	  0.0600	  0.5160	   0.229	   2.875
   51	  0.0600	  0.5160	   0.244	   3.055
   54	  0.0600	  0.5160	   0.259	   3.235
   57	  0.0600	  0.5160	   0.274	   3.415
   60	  0.0600	  0.5160	   0.289	   3.595
   63	  0.0600	  0.5160	   0.304	   3.775
   66	  0.0600	  0.5160	   0.319	   3.955
   69	  0.0600	  0.5160	   0.334	   4.135
   72	  0.0600	  0.5160	   0.349	   4.315
   75	  0.0600	  0.5160	   0.364	   4.495
   78	  0.0600	  0.5160	   0.379	   4.675
   81	  0.0600	  0.5160	   0.394	   4.855
   84	  0.0600	  0.5160	   0.407	   5.035
   87	  0.0600	  0.5160	   0.422	   5.215
   90	  0.0600	  0.5160	   0.439	   5.395
   93	  0.0800	  0.5160	   0.452	   5.575
   96	  0.0800	  0.5160	   0.468	   5.755
   99	  0.0800	  0.5160	   0.482	   5.935
  102	  0.0800	  0.5160	   0.498	   6.115
  105	  0.0800	  0.5160	   0.512	   6.295
  108	  0.0800	  0.5160	   0.527	   6.475
  111	  0.1000	  0.5160	   0.542	   6.655
  114	  0.1400	  0.5160	   0.558	   6.835
  117	  0.2000	  0.5160	   0.572	   7.015
  120	  0.2800	  0.5160	   0.587	   7.195
  123	  0.3800	  0.5140	   0.602	   7.375
  126	  0.5000	  0.5140	   0.618	   7.555
  129	  0.6600	  0.5140	   0.632	   7.735
  132	  0.8200	  0.5140	   0.647	   7.915
  135	  1.0000	  0.5140	   0.662	   8.095
  138	  1.2000	  0.5140	   0.678	   8.275
  141	  1.4200	  0.5140	   0.692	   8.455
  144	  1.6200	  0.5140	   0.707	   8.635
  147	  1.8400	  0.5140	   0.721	   8.815
  150	  2.0600	  0.5140	   0.736	   8.995
  153	  2.3000	  0.5140	   0.751	   9.175
  156	  2.5200	  0.5160	   0.766	   9.355
  159	  2.7200	  0.5160	   0.781	   9.535
  162	  2.8600	  0.5160	   0.796	   9.715
  165	  2.9000	  0.5160	   0.811	   9.895
  168	  2.8000	  0.5160	   0.826	  10.075
  171	  2.8800	  0.5160	   0.841	  10.255
  174	  3.0200	  0.5160	   0.856	  10.435
  177	  3.1800	  0.5160	   0.871	  10.615
  180	  3.3400	  0.5160	   0.886	  10.795
  183	  3.5200	  0.5180	   0.901	  10.975
  186	  3.6600	  0.5180	   0.916	  11.155
  189	  3.6200	  0.5180	   0.931	  11.335
  192	  3.6200	  0.5180	   0.946	  11.515
  195	  3.6800	  0.5180	   0.961	  11.695
  198	  3.7600	  0.5200	   0.976	  11.875
  201	  3.8400	  0.5200	   0.991	  12.055
  204	  3.9400	  0.5200	   1.006	  12.235
  207	  4.0600	  0.5200	   1.020	  12.415
  210	  4.1800	  0.5200	   1.036	  12.595
  213	  4.3000	  0.5220	   1.050	  12.775
  216	  4.4200	  0.5220	   1.066	  12.955
  219	  4.5600	  0.5220	   1.080	  13.135
  222	  4.6800	  0.5220	   1.096	  13.315
  225	  4.8200	  0.5240	   1.110	  13.495
  228	  4.9600	  0.5240	   1.126	  13.675
  231	  5.1000	  0.5240	   1.140	  13.855
  234	  5.2600	  0.5260	   1.155	  14.035
  237	  5.4000	  0.5260	   1.170	  14.215
  240	  5.5400	  0.5260	   1.185	  14.395
  243	  5.6800	  0.5280	   1.200	  14.575
  246	  5.8400	  0.5280	   1.215	  14.755
  249	  5.9800	  0.5300	   1.230	  14.935
  252	  6.1200	  0.5300	   1.245	  15.115
  255	  6.2600	  0.5300	   1.260	  15.295
  258	  6.4200	  0.5320	   1.275	  15.475
  261	  6.5600	  0.5320	   1.290	  15.655
  264	  6.7000	  0.5340	   1.305	  15.835
  267	  6.8600	  0.5340	   1.320	  16.015
  270	  7.0000	  0.5340	   1.335	  16.195
  273	  7.1600	  0.5340	   1.350	  16.375
  276	  7.3000	  0.5360	   1.365	  16.555
  279	  7.4400	  0.5360	   1.380	  16.735
  282	  7.6000	  0.5360	   1.395	  16.915
  285	  7.7400	  0.5380	   1.410	  17.095
  288	  7.8800	  0.5400	   1.425	  17.275
  291	  8.0400	  0.5400	   1.440	  17.455
  294	  8.1800	  0.5400	   1.455	  17.635
  297	  8.3400	  0.5420	   1.470	  17.815
  300	  8.4800	  0.5420	   1.485	  17.995
  303	  8.6400	  0.5440	   1.500	  18.175
  306	  8.8000	  0.5440	   1.515	  18.355
  309	  8.9400	  0.5440	   1.530	  18.535
  312	  9.1000	  0.5460	   1.545	  18.715
  315	  9.2400	  0.5460	   1.560	  18.895
  318	  9.4000	  0.5460	   1.575	  19.075
  321	  9.5400	  0.5480	   1.590	  19.255
  324	  9.7000	  0.5480	   1.605	  19.435
  327	  9.8600	  0.5500	   1.620	  19.615
  330	 10.0000	  0.5500	   1.635	  19.795
  333	 10.1400	  0.5520	   1.650	  19.975
  336	 10.3000	  0.5520	   1.665	  20.155
  339	 10.4600	  0.5520	   1.680	  20.335
  342	 10.6000	  0.5540	   1.695	  20.515
  345	 10.7600	  0.5540	   1.710	  20.695
  348	 10.9200	  0.5540	   1.725	  20.875
  351	 11.0600	  0.5560	   1.740	  21.055
  354	 11.2000	  0.5560	   1.755	  21.235
  357	 11.3600	  0.5580	   1.770	  21.415
  360	 11.5200	  0.5580	   1.785	  21.595
  363	 11.6800	  0.5580	   1.800	  21.775
  366	 11.8400	  0.5600	   1.815	  21.955
  369	 12.0000	  0.5600	   1.830	  22.135
  372	 12.1400	  0.5620	   1.845	  22.315
  375	 12.3000	  0.5620	   1.860	  22.495
  378	 12.4600	  0.5640	   1.875	  22.675
  381	 12.6200	  0.5640	   1.890	  22.855
  384	 12.7800	  0.5660	   1.905	  23.035
  387	 12.9400	  0.5660	   1.920	  23.215
  390	 13.1000	  0.5660	   1.935	  23.395
  393	 13.2600	  0.5660	   1.950	  23.575
  396	 13.4200	  0.5680	   1.965	  23.755
  399	 13.5800	  0.5700	   1.980	  23.935
  402	 13.7400	  0.5700	   1.995	  24.115
  405	 13.9000	  0.5700	   2.010	  24.295
  408	 14.0600	  0.5700	   2.025	  24.475
  411	 14.2200	  0.5720	   2.040	  24.655
  414	 14.3800	  0.5720	   2.055	  24.835
  417	 14.5400	  0.5740	   2.070	  25.015
  420	 14.7000	  0.5740	   2.085	  25.195
  423	 14.8600	  0.5760	   2.100	  25.375
  426	 15.0200	  0.5760	   2.115	  25.555
  429	 15.1800	  0.5780	   2.130	  25.735
  432	 15.3400	  0.5780	   2.145	  25.915
  435	 15.5000	  0.5780	   2.159	  26.095
  438	 15.6800	  0.5800	   2.175	  26.275
  441	 15.8400	  0.5800	   2.189	  26.455
  444	 16.0000	  0.5820	   2.205	  26.635
  447	 16.1600	  0.5820	   2.217	  26.815
  450	 16.3200	  0.5840	   2.232	  26.995
  453	 16.4800	  0.5840	   2.247	  27.175
  456	 16.6400	  0.5860	   2.263	  27.355
  459	 16.8000	  0.5860	   2.277	  27.535
  462	 16.9800	  0.5860	   2.293	  27.715
  465	 17.1400	  0.5880	   2.307	  27.895
  468	 17.3200	  0.5880	   2.322	  28.075
  471	 17.4800	  0.5900	   2.337	  28.255
  474	 17.6400	  0.5900	   2.352	  28.435
  477	 17.8200	  0.5920	   2.367	  28.615
  480	 17.9800	  0.5920	   2.382	  28.795
  483	 18.1400	  0.5920	   2.398	  28.975
  486	 18.3200	  0.5940	   2.412	  29.155
  489	 18.4800	  0.5940	   2.428	  29.335
  492	 18.6600	  0.5960	   2.442	  29.515
  495	 18.8200	  0.5960	   2.457	  29.695
  498	 19.0000	  0.5980	   2.471	  29.875
  501	 19.1800	  0.5980	   2.486	  30.055
  504	 19.3400	  0.5980	   2.501	  30.235
  507	 19.5200	  0.6000	   2.516	  30.415
  510	 19.6800	  0.6000	   2.531	  30.595
  513	 19.8600	  0.6020	   2.546	  30.775
  516	 20.0400	  0.6020	   2.561	  30.955
  519	 20.2000	  0.6040	   2.576	  31.135
  522	 20.3600	  0.6040	   2.591	  31.315
  525	 20.5400	  0.6060	   2.606	  31.495
  528	 20.7200	  0.6060	   2.621	  31.675
  531	 20.9000	  0.6080	   2.636	  31.855
  534	 21.0600	  0.6080	   2.651	  32.035
  537	 21.2400	  0.6080	   2.666	  32.215
  540	 21.4200	  0.6100	   2.681	  32.395
  543	 21.6000	  0.6100	   2.696	  32.575
  546	 21.7800	  0.6120	   2.711	  32.755
  549	 21.9600	  0.6120	   2.726	  32.935
  552	 22.1200	  0.6140	   2.741	  33.115
  555	 22.3000	  0.6140	   2.756	  33.295
  558	 22.4800	  0.6160	   2.771	  33.475
  561	 22.6400	  0.6160	   2.786	  33.655
  564	 22.8200	  0.6160	   2.801	  33.835
  567	 23.0000	  0.6180	   2.816	  34.015
  570	 23.1800	  0.6200	   2.831	  34.195
  573	 23.3600	  0.6200	   2.846	  34.375
  576	 23.5400	  0.6200	   2.861	  34.555
  579	 23.7000	  0.6220	   2.876	  34.735
  582	 23.8800	  0.6220	   2.891	  34.915
  585	 24.0600	  0.6240	   2.906	  35.095
  588	 24.2400	  0.6240	   2.921	  35.275
  591	 24.4200	  0.6240	   2.936	  35.455
  594	 24.6000	  0.6260	   2.951	  35.635
  597	 24.7800	  0.6280	   2.966	  35.815
  600	 24.9600	  0.6280	   2.981	  35.995
  603	 25.1200	  0.6280	   2.996	  36.175
  606	 25.3000	  0.6300	   3.011	  36.355
  609	 25.4800	  0.6320	   3.026	  36.535
  612	 25.6600	  0.6320	   3.041	  36.715
  615	 25.8400	  0.6340	   3.056	  36.895
  618	 26.0200	  0.6340	   3.071	  37.075
  621	 26.2000	  0.6340	   3.086	  37.255
  624	 26.3800	  0.6360	   3.101	  37.435
  627	 26.5600	  0.6360	   3.116	  37.615
  630	 26.7400	  0.6380	   3.130	  37.795
  633	 26.9200	  0.6380	   3.145	  37.975
  636	 27.1000	  0.6400	   3.160	  38.155
  639	 27.2800	  0.6400	   3.175	  38.335
  642	 27.4600	  0.6420	   3.190	  38.515
  645	 27.6400	  0.6420	   3.205	  38.695
  648	 27.8400	  0.6440	   3.220	  38.875
  651	 28.0200	  0.6440	   3.236	  39.055
  654	 28.2000	  0.6460	   3.250	  39.235
  657	 28.3800	  0.6460	   3.265	  39.415
  660	 28.5600	  0.6480	   3.280	  39.595
  663	 28.7400	  0.6480	   3.295	  39.775
  666	 28.9200	  0.6500	   3.310	  39.955
  669	 29.1000	  0.6500	   3.325	  40.135
  672	 29.2800	  0.6500	   3.340	  40.315
  675	 29.4800	  0.6520	   3.355	  40.495
  678	 29.6600	  0.6520	   3.370	  40.675
  681	 29.8400	  0.6540	   3.385	  40.855
  684	 30.0200	  0.6540	   3.400	  41.035
  687	 30.2000	  0.6560	   3.415	  41.215
  690	 30.3800	  0.6560	   3.429	  41.395
  693	 30.5600	  0.6580	   3.444	  41.575
  696	 30.7400	  0.6580	   3.459	  41.755
  699	 30.9400	  0.6600	   3.474	  41.935
  702	 31.1200	  0.6600	   3.489	  42.115
  705	 31.3000	  0.6620	   3.504	  42.295
  708	 31.4800	  0.6620	   3.519	  42.475
  711	 31.6200	  0.6640	   3.531	  42.655
  714	 31.8200	  0.6640	   3.546	  42.835
  717	 32.0200	  0.6660	   3.561	  43.015
  720	 32.2000	  0.6660	   3.576	  43.195
  723	 32.4000	  0.6660	   3.591	  43.375
  726	 32.5800	  0.6680	   3.606	  43.555
  729	 32.7600	  0.6700	   3.621	  43.735
  732	 32.9400	  0.6700	   3.636	  43.915
  735	 33.1400	  0.6700	   3.651	  44.095
  738	 33.3200	  0.6720	   3.666	  44.275
  741	 33.5000	  0.6720	   3.681	  44.455
  744	 33.6800	  0.6740	   3.696	  44.635
  747	 33.8800	  0.6740	   3.711	  44.815
  750	 34.0600	  0.6760	   3.726	  44.995
  753	 34.2400	  0.6760	   3.741	  45.175
  756	 34.4400	  0.6780	   3.756	  45.355
  759	 34.6200	  0.6780	   3.771	  45.535
  762	 34.8200	  0.6800	   3.786	  45.715
  765	 35.0000	  0.6820	   3.801	  45.895
  768	 35.1800	  0.6820	   3.816	  46.075
  771	 35.3600	  0.6820	   3.831	  46.255
  774	 35.5600	  0.6840	   3.846	  46.435
  777	 35.7400	  0.6840	   3.861	  46.615
  780	 35.9200	  0.6860	   3.876	  46.795
  783	 36.1200	  0.6880	   3.890	  46.975
  786	 36.3000	  0.6880	   3.906	  47.155
  789	 36.5000	  0.6880	   3.920	  47.335
  792	 36.6800	  0.6900	   3.936	  47.515
  795	 36.8600	  0.6900	   3.950	  47.695
  798	 37.0600	  0.6920	   3.966	  47.875
  801	 37.2400	  0.6920	   3.981	  48.055
  804	 37.4200	  0.6940	   3.996	  48.235
  807	 37.6200	  0.6940	   4.010	  48.415
  810	 37.8000	  0.6960	   4.025	  48.595
  813	 38.0000	  0.6960	   4.040	  48.775
  816	 38.1800	  0.6980	   4.055	  48.955
  819	 38.3600	  0.6980	   4.070	  49.135
  822	 38.5600	  0.7000	   4.085	  49.315
  825	 38.7400	  0.7000	   4.100	  49.495
  828	 38.9400	  0.7020	   4.115	  49.675
  831	 39.1200	  0.7040	   4.130	  49.855
  834	 39.3200	  0.7040	   4.145	  50.035
  837	 39.5000	  0.7040	   4.160	  50.215
  840	 39.7000	  0.7060	   4.175	  50.395
  843	 39.8800	  0.7060	   4.190	  50.575
  846	 40.0800	  0.7080	   4.205	  50.755
  849	 40.2600	  0.7080	   4.220	  50.935
  852	 40.4400	  0.7100	   4.235	  51.115
  855	 40.6400	  0.7100	   4.250	  51.295
  858	 40.8400	  0.7120	   4.265	  51.475
  861	 41.0200	  0.7140	   4.280	  51.655
  864	 41.2200	  0.7140	   4.295	  51.835
  867	 41.4000	  0.7160	   4.310	  52.015
  870	 41.6000	  0.7160	   4.325	  52.195
  873	 41.7800	  0.7160	   4.340	  52.375
  876	 41.9800	  0.7180	   4.355	  52.555
  879	 42.1600	  0.7180	   4.370	  52.735
  882	 42.3600	  0.7200	   4.385	  52.915
  885	 42.5400	  0.7200	   4.400	  53.095
  888	 42.7400	  0.7220	   4.415	  53.275
  891	 42.9200	  0.7220	   4.430	  53.455
  894	 43.1200	  0.7240	   4.445	  53.635
  897	 43.3000	  0.7260	   4.460	  53.815
  900	 43.5000	  0.7260	   4.475	  53.995
  903	 43.7000	  0.7280	   4.490	  54.175
  906	 43.8800	  0.7280	   4.505	  54.355
  909	 44.0800	  0.7300	   4.519	  54.535
  912	 44.2600	  0.7300	   4.534	  54.715
  915	 44.4600	  0.7320	   4.549	  54.895
  918	 44.6400	  0.7320	   4.564	  55.075
  921	 44.8400	  0.7340	   4.579	  55.255
  924	 45.0200	  0.7360	   4.595	  55.435
  927	 45.2200	  0.7360	   4.609	  55.615
  930	 45.4000	  0.7360	   4.624	  55.795
  933	 45.5800	  0.7380	   4.639	  55.975
  936	 45.7800	  0.7400	   4.654	  56.155
  939	 45.9600	  0.7400	   4.669	  56.335
  942	 46.1600	  0.7420	   4.684	  56.515
  945	 46.3400	  0.7440	   4.699	  56.695
  948	 46.5400	  0.7440	   4.714	  56.875
  951	 46.7200	  0.7460	   4.729	  57.055
  954	 46.2600	  0.7420	   4.744	  57.235
  957	 46.6800	  0.7440	   4.759	  57.415
  960	 47.0000	  0.7460	   4.774	  57.595
  963	 47.2200	  0.7480	   4.789	  57.775
  966	 47.4000	  0.7500	   4.804	  57.955
  969	 47.5800	  0.7520	   4.819	  58.135
  972	 47.7600	  0.7540	   4.834	  58.315
  975	 47.9400	  0.7540	   4.849	  58.495
  978	 48.1000	  0.7560	   4.864	  58.675
  981	 48.2600	  0.7580	   4.879	  58.855
  984	 48.4400	  0.7600	   4.894	  59.035
  987	 48.6000	  0.7640	   4.909	  59.215
  990	 48.7600	  0.7660	   4.924	  59.395
  993	 48.9000	  0.7680	   4.939	  59.575
  996	 49.0400	  0.7720	   4.954	  59.755
  999	 49.1800	  0.7760	   4.969	  59.935
 1002	 49.2800	  0.7800	   4.984	  60.115
 1005	 49.3400	  0.7860	   4.999	  60.295
 1008	 49.3400	  0.7960	   5.014	  60.475
 1011	 49.2600	  0.8080	   5.029	  60.655
 1014	 49.1800	  0.8200	   5.044	  60.835
 1017	 49.1600	  0.8320	   5.059	  61.015
 1020	 49.1600	  0.8460	   5.074	  61.195
 1023	 49.1600	  0.8580	   5.089	  61.375
 1026	 49.1600	  0.8720	   5.104	  61.555
 1029	 49.1600	  0.8860	   5.120	  61.735
 1032	 49.1400	  0.9000	   5.135	  61.915
 1035	 49.1400	  0.9120	   5.150	  62.095
 1038	 49.1400	  0.9260	   5.165	  62.275
 1041	 49.1400	  0.9400	   5.180	  62.455
 1044	 49.1400	  0.9540	   5.195	  62.635
 1047	 49.1200	  0.9680	   5.210	  62.815
 1050	 49.1000	  0.9820	   5.225	  62.995
 1053	 49.1400	  0.9940	   5.240	  63.175
 1056	 49.2000	  1.0080	   5.255	  63.355
 1059	 49.2400	  1.0200	   5.270	  63.535
 1062	 49.2800	  1.0340	   5.285	  63.715
 1065	 49.3000	  1.0460	   5.300	  63.895
 1068	 49.3400	  1.0600	   5.315	  64.075
 1071	 49.3600	  1.0720	   5.330	  64.255
 1074	 49.4000	  1.0840	   5.345	  64.435
 1077	 49.4200	  1.0980	   5.360	  64.615
 1080	 49.4600	  1.1100	   5.375	  64.795
 1083	 49.4800	  1.1220	   5.390	  64.975
 1086	 49.5000	  1.1340	   5.405	  65.155
 1089	 49.5400	  1.1480	   5.420	  65.335
 1092	 49.5600	  1.1600	   5.436	  65.515
 1095	 49.6000	  1.1720	   5.450	  65.695
 1098	 49.6200	  1.1840	   5.466	  65.875
 1101	 49.6400	  1.1980	   5.480	  66.055
 1104	 49.6800	  1.2112	   5.496	  66.235
 1107	 49.7000	  1.2262	   5.511	  66.415
 1110	 49.7200	  1.2412	   5.526	  66.595
 1113	 49.7600	  1.2562	   5.541	  66.775
 1116	 49.7800	  1.2712	   5.556	  66.955
 1119	 49.8000	  1.2862	   5.571	  67.135
 1122	 49.8400	  1.3012	   5.586	  67.315
 1125	 49.8600	  1.3162	   5.601	  67.495
 1128	 49.8800	  1.3312	   5.616	  67.675
 1131	 49.9000	  1.3462	   5.631	  67.855
 1134	 49.9400	  1.3612	   5.646	  68.035
 1137	 49.9600	  1.3762	   5.661	  68.215
 1140	 49.9800	  1.3912	   5.676	  68.395
 1143	 50.0000	  1.4062	   5.691	  68.575
 1146	 49.7800	  1.4087	   5.694	  68.755
 1149	 49.6000	  1.4087	   5.694	  68.935
 1152	 49.4800	  1.4087	   5.694	  69.115
 1155	 49.4000	  1.4087	   5.694	  69.295
 1158	 49.3400	  1.4087	   5.694	  69.475
 1161	 49.3000	  1.4087	   5.694	  69.655
 1164	 49.2400	  1.4087	   5.694	  69.835
 1167	 49.2000	  1.4087	   5.694	  70.015
 1170	 49.1600	  1.4099	   5.695	  70.195
 1173	 49.1400	  1.4099	   5.695	  70.375
 1176	 49.1200	  1.4099	   5.695	  70.555
 1179	 49.0800	  1.4099	   5.695	  70.735
 1182	 49.0600	  1.4099	   5.695	  70.915
 1185	 49.0400	  1.4099	   5.695	  71.095
 1188	 49.0200	  1.4099	   5.695	  71.275
 1191	 49.0000	  1.4099	   5.695	  71.455
 1194	 48.9800	  1.4099	   5.695	  71.635
 1197	 48.9800	  1.4099	   5.695	  71.815
 1200	 48.9600	  1.4099	   5.695	  71.995
 1203	 48.9400	  1.4099	   5.695	  72.175
 1206	 48.9200	  1.4099	   5.695	  72.355
 1209	 48.9200	  1.4099	   5.695	  72.535
 1212	 48.9000	  1.4099	   5.695	  72.715
 1215	 48.9000	  1.4099	   5.695	  72.895
 1218	 48.8800	  1.4099	   5.695	  73.075
 1221	 48.8600	  1.4099	   5.695	  73.255
 1224	 48.8600	  1.4099	   5.695	  73.435
 1227	 48.8400	  1.4099	   5.695	  73.615
 1230	 48.8400	  1.4099	   5.695	  73.795
 1233	 48.8200	  1.4099	   5.695	  73.975
 1236	 48.8200	  1.4099	   5.695	  74.155
 1239	 48.8200	  1.4099	   5.695	  74.335
 1242	 48.8000	  1.4099	   5.695	  74.515
 1245	 48.8000	  1.4099	   5.695	  74.695
 1248	 48.8000	  1.4099	   5.695	  74.875
 1251	 48.7800	  1.4099	   5.695	  75.055
 1254	 48.7800	  1.4099	   5.695	  75.235
 1257	 48.7600	  1.4099	   5.695	  75.415
 1260	 48.7600	  1.4099	   5.695	  75.595
 1263	 48.7400	  1.4099	   5.695	  75.775
 1266	 48.7400	  1.4099	   5.695	  75.955
 1269	 48.7400	  1.4099	   5.695	  76.135
 1272	 48.7200	  1.4099	   5.695	  76.315
 1275	 48.7200	  1.4099	   5.695	  76.495
 1278	 48.7200	  1.4099	   5.695	  76.675
 1281	 48.7200	  1.4099	   5.695	  76.855
 1284	 48.7000	  1.4099	   5.695	  77.035
 1287	 48.7000	  1.4099	   5.695	  77.215
 1290	 48.7000	  1.4099	   5.695	  77.395
 1293	 48.6800	  1.4099	   5.695	  77.575
 1296	 48.6800	  1.4099	   5.695	  77.755
 1299	 48.6800	  1.4099	   5.695	  77.935
 1302	 48.6800	  1.4099	   5.695	  78.115
 1305	 48.6600	  1.4099	   5.695	  78.295
 1308	 48.6600	  1.4099	   5.695	  78.475
 1311	 48.6600	  1.4099	   5.695	  78.655
 1314	 48.6600	  1.4099	   5.695	  78.835
 1317	 48.6400	  1.4099	   5.695	  79.015
 1320	 48.6400	  1.4099	   5.695	  79.195
 1323	 48.6400	  1.4099	   5.695	  79.375
 1326	 48.6400	  1.4099	   5.695	  79.555
 1329	 48.6200	  1.4099	   5.695	  79.735
 1332	 48.6200	  1.4099	   5.695	  79.915
 1335	 48.6200	  1.4099	   5.695	  80.095
 1338	 48.6200	  1.4099	   5.695	  80.275
 1341	 48.6200	  1.4099	   5.695	  80.455
 1344	 48.8200	  1.4174	   5.702	  80.635
 1347	 49.3800	  1.4324	   5.717	  80.815
 1350	 49.8000	  1.4474	   5.733	  80.995
 1353	 50.0400	  1.4624	   5.747	  81.175
 1356	 50.1600	  1.4774	   5.762	  81.355
 1359	 50.2200	  1.4924	   5.777	  81.535
 1362	 50.2600	  1.5074	   5.793	  81.715
 1365	 50.2800	  1.5224	   5.807	  81.895
 1368	 50.3000	  1.5374	   5.822	  82.075
 1371	 50.3200	  1.5524	   5.838	  82.255
 1374	 50.3400	  1.5674	   5.852	  82.435
 1377	 50.3600	  1.5824	   5.867	  82.615
 1380	 50.3800	  1.5974	   5.882	  82.795
 1383	 50.4000	  1.6137	   5.899	  82.975
 1386	 50.4000	  1.6287	   5.914	  83.155
 1389	 50.4400	  1.6437	   5.929	  83.335
 1392	 50.4600	  1.6587	   5.944	  83.515
 1395	 50.4600	  1.6737	   5.959	  83.695
 1398	 50.4800	  1.6887	   5.974	  83.875
 1401	 50.5000	  1.7037	   5.989	  84.055
 1404	 50.5200	  1.7187	   6.004	  84.235
 1407	 50.5400	  1.7337	   6.019	  84.415
 1410	 50.5600	  1.7487	   6.034	  84.595
 1413	 50.5800	  1.7637	   6.049	  84.775
 1416	 50.6000	  1.7799	   6.065	  84.955
 1419	 50.6200	  1.7949	   6.080	  85.135
 1422	 50.6400	  1.8099	   6.095	  85.315
 1425	 50.6600	  1.8249	   6.110	  85.495
 1428	 50.6800	  1.8399	   6.125	  85.675
 1431	 50.7000	  1.8549	   6.140	  85.855
 1434	 50.7200	  1.8687	   6.154	  86.035
 1437	 50.7600	  1.8837	   6.169	  86.215
 1440	 50.7800	  1.8987	   6.184	  86.395
 1443	 50.8000	  1.9137	   6.199	  86.575
 1446	 50.8400	  1.9287	   6.214	  86.755
 1449	 50.8600	  1.9437	   6.229	  86.935
 1452	 50.8800	  1.9599	   6.245	  87.115
 1455	 50.9000	  1.9749	   6.260	  87.295
 1458	 50.9200	  1.9899	   6.275	  87.475
 1461	 50.9400	  2.0049	   6.290	  87.655
 1464	 50.9600	  2.0199	   6.305	  87.835
 1467	 50.9800	  2.0349	   6.320	  88.015
 1470	 51.0200	  2.0499	   6.335	  88.195
 1473	 51.0400	  2.0649	   6.350	  88.375
 1476	 51.0600	  2.0799	   6.365	  88.555
 1479	 51.0800	  2.0949	   6.380	  88.735
 1482	 51.1000	  2.1099	   6.395	  88.915
 1485	 51.1400	  2.1249	   6.410	  89.095
 1488	 51.1600	  2.1399	   6.425	  89.275
 1491	 51.1800	  2.1549	   6.440	  89.455
 1494	 51.2000	  2.1699	   6.455	  89.635
 1497	 51.2200	  2.1849	   6.470	  89.815
 1500	 51.2400	  2.1999	   6.485	  89.995
 1503	 51.2800	  2.2149	   6.500	  90.175
 1506	 51.3000	  2.2299	   6.515	  90.355
 1509	 51.3200	  2.2449	   6.530	  90.535
 1512	 51.3400	  2.2612	   6.546	  90.715
 1515	 51.3600	  2.2749	   6.560	  90.895
 1518	 51.3800	  2.2912	   6.576	  91.075
 1521	 51.4000	  2.3062	   6.591	  91.255
 1524	 51.4400	  2.3212	   6.606	  91.435
 1527	 51.4400	  2.3362	   6.621	  91.615
 1530	 51.4800	  2.3512	   6.636	  91.795
 1533	 51.5000	  2.3662	   6.651	  91.975
 1536	 51.5200	  2.3812	   6.666	  92.155
 1539	 51.5400	  2.3962	   6.681	  92.335
 1542	 51.5600	  2.4112	   6.696	  92.515
 1545	 51.5800	  2.4262	   6.711	  92.695
 1548	 51.6000	  2.4412	   6.726	  92.875
 1551	 51.6200	  2.4562	   6.741	  93.055
 1554	 51.6400	  2.4712	   6.756	  93.235
 1557	 51.6600	  2.4862	   6.771	  93.415
 1560	 51.6800	  2.5024	   6.787	  93.595
 1563	 51.7000	  2.5174	   6.802	  93.775
 1566	 51.7200	  2.5324	   6.817	  93.955
 1569	 51.7400	  2.5474	   6.832	  94.135
 1572	 51.7600	  2.5624	   6.847	  94.315
 1575	 51.7800	  2.5774	   6.862	  94.495
 1578	 51.8000	  2.5924	   6.878	  94.675
 1581	 51.8200	  2.6074	   6.892	  94.855
 1584	 51.8400	  2.6224	   6.907	  95.035
 1587	 51.8600	  2.6374	   6.922	  95.215
 1590	 51.8800	  2.6524	   6.938	  95.395
 1593	 51.9000	  2.6674	   6.952	  95.575
 1596	 51.9200	  2.6824	   6.967	  95.755
 1599	 51.9400	  2.6974	   6.983	  95.935
 1602	 51.9600	  2.7124	   6.997	  96.115
 1605	 51.9800	  2.7274	   7.012	  96.295
 1608	 51.9800	  2.7424	   7.027	  96.475
 1611	 52.0000	  2.7574	   7.043	  96.655
 1614	 52.0200	  2.7724	   7.057	  96.835
 1617	 52.0400	  2.7874	   7.072	  97.015
 1620	 52.0600	  2.8024	   7.087	  97.195
 1623	 52.0800	  2.8174	   7.102	  97.375
 1626	 52.1000	  2.8324	   7.117	  97.555
 1629	 52.1200	  2.8474	   7.132	  97.735
 1632	 52.1200	  2.8624	   7.148	  97.915
 1635	 52.1400	  2.8774	   7.162	  98.095
 1638	 52.1600	  2.8924	   7.177	  98.275
 1641	 52.1800	  2.9074	   7.192	  98.455
 1644	 52.2000	  2.9224	   7.207	  98.635
 1647	 52.2000	  2.9374	   7.222	  98.815
 1650	 52.2200	  2.9524	   7.237	  98.995
 1653	 52.2400	  2.9674	   7.253	  99.175
 1656	 52.2400	  2.9824	   7.267	  99.355
 1659	 52.2600	  2.9974	   7.282	  99.535
 1662	 52.2800	  3.0124	   7.297	  99.715
 1665	 52.3000	  3.0287	   7.314	  99.895
 1668	 52.3000	  3.0437	   7.329	 100.075
 1671	 52.3200	  3.0587	   7.344	 100.255
 1674	 52.3400	  3.0737	   7.359	 100.435
 1677	 52.3400	  3.0887	   7.374	 100.615
 1680	 52.3600	  3.1024	   7.387	 100.795
 1683	 52.3800	  3.1174	   7.402	 100.975
 1686	 52.3800	  3.1324	   7.418	 101.155
 1689	 52.4000	  3.1474	   7.432	 101.335
 1692	 52.4200	  3.1624	   7.447	 101.515
 1695	 52.4200	  3.1787	   7.464	 101.695
 1698	 52.4400	  3.1937	   7.479	 101.875
 1701	 52.4400	  3.2087	   7.494	 102.055
 1704	 52.4600	  3.2237	   7.509	 102.235
 1707	 52.4800	  3.2387	   7.524	 102.415
 1710	 52.4800	  3.2537	   7.539	 102.595
 1713	 52.5000	  3.2687	   7.554	 102.775
 1716	 52.5000	  3.2837	   7.569	 102.955
 1719	 52.5200	  3.2987	   7.584	 103.135
 1722	 52.5200	  3.3137	   7.599	 103.315
 1725	 52.5400	  3.3287	   7.614	 103.495
 1728	 52.5400	  3.3437	   7.629	 103.675
 1731	 52.5600	  3.3587	   7.644	 103.855
 1734	 52.5600	  3.3737	   7.659	 104.035
 1737	 52.5800	  3.3887	   7.674	 104.215
 1740	 52.5800	  3.4037	   7.689	 104.395
 1743	 52.6000	  3.4187	   7.704	 104.575
 1746	 52.6000	  3.4337	   7.719	 104.755
 1749	 52.6200	  3.4487	   7.734	 104.935
 1752	 52.6200	  3.4637	   7.749	 105.115
 1755	 52.6200	  3.4787	   7.764	 105.295
 1758	 52.6400	  3.4937	   7.779	 105.475
 1761	 52.6400	  3.5087	   7.794	 105.655
 1764	 52.6600	  3.5237	   7.809	 105.835
 1767	 52.6600	  3.5387	   7.824	 106.015
 1770	 52.6600	  3.5537	   7.839	 106.195
 1773	 52.6800	  3.5699	   7.855	 106.375
 1776	 52.6800	  3.5849	   7.870	 106.555
 1779	 52.6800	  3.5999	   7.885	 106.735
 1782	 52.6800	  3.6149	   7.900	 106.915
 1785	 52.7000	  3.6299	   7.915	 107.095
 1788	 52.7000	  3.6449	   7.930	 107.275
 1791	 52.7000	  3.6599	   7.945	 107.455
 1794	 52.7200	  3.6749	   7.960	 107.635
 1797	 52.7200	  3.6899	   7.975	 107.815
 1800	 52.7200	  3.7049	   7.990	 107.995
 1803	 52.7200	  3.7199	   8.005	 108.175
 1806	 52.7400	  3.7349	   8.020	 108.355
 1809	 52.7400	  3.7499	   8.035	 108.535
 1812	 52.7400	  3.7649	   8.050	 108.715
 1815	 52.7400	  3.7799	   8.065	 108.895
 1818	 52.7400	  3.7949	   8.080	 109.075
 1821	 52.7400	  3.8099	   8.095	 109.255
 1824	 52.7600	  3.8249	   8.110	 109.435
 1827	 52.7600	  3.8399	   8.125	 109.615
 1830	 52.7600	  3.8549	   8.140	 109.795
 1833	 52.7600	  3.8699	   8.155	 109.975
 1836	 52.7600	  3.8849	   8.170	 110.155
 1839	 52.7600	  3.9012	   8.186	 110.335
 1842	 52.7800	  3.9162	   8.201	 110.515
 1845	 52.7800	  3.9312	   8.216	 110.695
 1848	 52.7600	  3.9449	   8.230	 110.875
 1851	 52.7600	  3.9612	   8.246	 111.055
 1854	 52.7600	  3.9749	   8.260	 111.235
 1857	 52.7600	  3.9912	   8.276	 111.415
 1860	 52.7800	  4.0049	   8.290	 111.595
 1863	 52.7800	  4.0212	   8.306	 111.775
 1866	 52.7800	  4.0349	   8.320	 111.955
 1869	 52.7800	  4.0512	   8.336	 112.135
 1872	 52.7600	  4.0649	   8.350	 112.315
 1875	 52.7800	  4.0812	   8.366	 112.495
 1878	 52.7800	  4.0962	   8.381	 112.675
 1881	 52.7600	  4.1112	   8.396	 112.855
 1884	 52.7600	  4.1262	   8.411	 113.035
 1887	 52.7600	  4.1412	   8.426	 113.215
 1890	 52.7600	  4.1562	   8.441	 113.395
 1893	 52.7600	  4.1712	   8.456	 113.575
 1896	 52.7600	  4.1862	   8.471	 113.755
 1899	 52.7600	  4.2012	   8.486	 113.935
 1902	 52.7600	  4.2162	   8.501	 114.115
 1905	 52.7400	  4.2312	   8.516	 114.295
 1908	 52.7400	  4.2462	   8.531	 114.475
 1911	 52.7400	  4.2612	   8.546	 114.655
 1914	 52.7400	  4.2762	   8.561	 114.835
 1917	 52.7200	  4.2912	   8.576	 115.015
 1920	 52.7200	  4.3062	   8.591	 115.195
 1923	 52.7200	  4.3212	   8.606	 115.375
 1926	 52.7000	  4.3362	   8.621	 115.555
 1929	 52.7000	  4.3512	   8.636	 115.735
 1932	 52.7000	  4.3662	   8.651	 115.915
 1935	 52.6800	  4.3812	   8.666	 116.095
 1938	 52.6800	  4.3962	   8.681	 116.275
 1941	 52.6600	  4.4112	   8.696	 116.455
 1944	 52.6600	  4.4262	   8.711	 116.635
 1947	 52.6400	  4.4424	   8.727	 116.815
 1950	 52.6400	  4.4574	   8.742	 116.995
 1953	 52.6200	  4.4724	   8.757	 117.175
 1956	 52.6000	  4.4874	   8.773	 117.355
 1959	 52.6000	  4.5024	   8.787	 117.535
 1962	 52.5800	  4.5174	   8.802	 117.715
 1965	 52.5600	  4.5324	   8.818	 117.895
 1968	 52.5400	  4.5474	   8.832	 118.075
 1971	 52.5400	  4.5624	   8.847	 118.255
 1974	 52.5200	  4.5774	   8.863	 118.435
 1977	 52.4800	  4.5924	   8.877	 118.615
 1980	 52.4600	  4.6074	   8.892	 118.795
 1983	 52.4400	  4.6224	   8.908	 118.975
 1986	 52.4200	  4.6374	   8.922	 119.155
 1989	 52.4000	  4.6524	   8.938	 119.335
 1992	 52.3600	  4.6674	   8.952	 119.515
 1995	 52.3400	  4.6824	   8.967	 119.695
 1998	 52.3200	  4.6974	   8.983	 119.875
 2001	 52.2800	  4.7124	   8.997	 120.055
 2004	 52.2600	  4.7274	   9.012	 120.235
 2007	 52.2200	  4.7424	   9.028	 120.415
 2010	 52.1800	  4.7587	   9.044	 120.595
 2013	 52.1400	  4.7737	   9.059	 120.775
 2016	 52.1200	  4.7887	   9.074	 120.955
 2019	 52.0600	  4.8037	   9.089	 121.135
 2022	 52.0200	  4.8187	   9.104	 121.315
 2025	 51.9800	  4.8337	   9.119	 121.495
 2028	 51.9200	  4.8499	   9.135	 121.675
 2031	 51.6000	  4.8649	   9.150	 121.855
 2034	 51.8200	  4.8799	   9.165	 122.035
 2037	 51.8800	  4.8949	   9.180	 122.215
 2040	 51.8600	  4.9099	   9.195	 122.395
 2043	 51.8000	  4.9249	   9.210	 122.575
 2046	 51.7400	  4.9399	   9.225	 122.755
 2049	 51.6800	  4.9549	   9.240	 122.935
 2052	 51.6200	  4.9699	   9.255	 123.115
 2055	 51.5800	  4.9849	   9.270	 123.295
 2058	 51.5200	  4.9999	   9.285	 123.475
 2061	 51.4600	  5.0149	   9.300	 123.655
 2064	 51.4000	  5.0299	   9.315	 123.835
 2067	 51.3400	  5.0449	   9.330	 124.015
 2070	 51.3000	  5.0612	   9.346	 124.195
 2073	 51.2400	  5.0749	   9.360	 124.375
 2076	 51.1800	  5.0912	   9.376	 124.555
 2079	 51.1200	  5.1049	   9.390	 124.735
 2082	 51.0600	  5.1212	   9.406	 124.915
 2085	 51.0000	  5.1349	   9.420	 125.095
 2088	 50.9400	  5.1499	   9.435	 125.275
 2091	 50.8800	  5.1649	   9.450	 125.455
 2094	 50.8200	  5.1812	   9.466	 125.635
 2097	 50.7400	  5.1949	   9.480	 125.815
 2100	 50.6800	  5.2112	   9.496	 125.995
 2103	 50.6200	  5.2262	   9.511	 126.175
 2106	 50.5600	  5.2412	   9.526	 126.355
 2109	 50.5000	  5.2562	   9.541	 126.535
 2112	 50.4400	  5.2712	   9.556	 126.715
 2115	 50.3600	  5.2862	   9.571	 126.895
 2118	 50.3000	  5.3012	   9.586	 127.075
 2121	 50.2400	  5.3162	   9.601	 127.255
 2124	 50.1800	  5.3312	   9.616	 127.435
 2127	 50.1200	  5.3462	   9.631	 127.615
 2130	 50.0400	  5.3612	   9.646	 127.795
 2133	 49.9800	  5.3762	   9.661	 127.975
 2136	 49.9200	  5.3912	   9.676	 128.155
 2139	 49.8400	  5.4062	   9.691	 128.335
 2142	 49.7800	  5.4212	   9.706	 128.515
 2145	 49.7000	  5.4362	   9.721	 128.695
 2148	 49.6400	  5.4512	   9.736	 128.875
 2151	 49.5800	  5.4662	   9.751	 129.055
 2154	 49.5000	  5.4812	   9.766	 129.235
 2157	 49.4400	  5.4962	   9.781	 129.415
 2160	 49.3600	  5.5112	   9.796	 129.595
 2163	 49.3000	  5.5262	   9.811	 129.775
 2166	 49.2200	  5.5412	   9.826	 129.955
 2169	 49.1600	  5.5562	   9.841	 130.135
 2172	 49.0800	  5.5724	   9.858	 130.315
 2175	 49.0200	  5.5874	   9.872	 130.495
 2178	 48.9400	  5.6024	   9.887	 130.675
 2181	 48.8600	  5.6162	   9.901	 130.855
 2184	 48.8000	  5.6312	   9.916	 131.035
 2187	 48.7200	  5.6462	   9.931	 131.215
 2190	 48.6400	  5.6624	   9.948	 131.395
 2193	 48.5800	  5.6774	   9.962	 131.575
 2196	 48.5000	  5.6924	   9.977	 131.755
 2199	 48.4400	  5.7074	   9.992	 131.935
 2202	 48.3600	  5.7224	  10.007	 132.115
 2205	 48.2800	  5.7374	  10.023	 132.295
 2208	 48.2000	  5.7524	  10.037	 132.475
 2211	 48.1200	  5.7674	  10.052	 132.655
 2214	 48.0600	  5.7824	  10.068	 132.835
 2217	 47.9800	  5.7974	  10.082	 133.015
 2220	 47.9000	  5.8124	  10.097	 133.195
 2223	 47.8200	  5.8274	  10.113	 133.375
 2226	 47.7400	  5.8437	  10.129	 133.555
 2229	 47.6800	  5.8587	  10.144	 133.735
 2232	 47.6000	  5.8737	  10.159	 133.915
 2235	 47.5200	  5.8887	  10.174	 134.095
 2238	 47.4400	  5.9037	  10.189	 134.275
 2241	 47.3600	  5.9187	  10.204	 134.455
 2244	 47.2800	  5.9337	  10.219	 134.635
 2247	 47.2000	  5.9487	  10.234	 134.815
 2250	 47.1200	  5.9637	  10.249	 134.995
 2253	 47.0400	  5.9787	  10.264	 135.175
 2256	 46.9600	  5.9937	  10.279	 135.355
 2259	 46.8800	  6.0087	  10.294	 135.535
 2262	 46.8000	  6.0237	  10.309	 135.715
 2265	 46.7200	  6.0387	  10.324	 135.895
 2268	 46.6400	  6.0537	  10.339	 136.075
 2271	 46.5600	  6.0699	  10.355	 136.255
 2274	 46.4600	  6.0837	  10.369	 136.435
 2277	 46.3800	  6.0987	  10.384	 136.615
 2280	 46.3000	  6.1137	  10.399	 136.795
 2283	 46.2200	  6.1287	  10.414	 136.975
 2286	 46.1400	  6.1437	  10.429	 137.155
 2289	 46.0400	  6.1587	  10.444	 137.335
 2292	 45.9600	  6.1749	  10.460	 137.515
 2295	 45.8800	  6.1899	  10.475	 137.695
 2298	 45.7800	  6.2049	  10.490	 137.875
 2301	 45.7000	  6.2199	  10.505	 138.055
 2304	 45.6200	  6.2349	  10.520	 138.235
 2307	 45.5200	  6.2499	  10.535	 138.415
 2310	 45.4400	  6.2649	  10.550	 138.595
 2313	 45.3400	  6.2799	  10.565	 138.775
 2316	 45.2800	  6.2949	  10.580	 138.955
 2319	 45.1800	  6.3099	  10.595	 139.135
 2322	 45.1000	  6.3249	  10.610	 139.315
 2325	 45.0000	  6.3412	  10.626	 139.495
 2328	 44.9200	  6.3549	  10.640	 139.675
 2331	 44.8200	  6.3712	  10.656	 139.855
 2334	 44.7400	  6.3849	  10.670	 140.035
 2337	 44.6400	  6.4012	  10.686	 140.215
 2340	 44.5400	  6.4162	  10.701	 140.395
 2343	 44.4600	  6.4312	  10.716	 140.575
 2346	 44.3600	  6.4462	  10.731	 140.755
 2349	 44.2600	  6.4612	  10.746	 140.935
 2352	 44.1800	  6.4762	  10.761	 141.115
 2355	 44.0800	  6.4912	  10.776	 141.295
 2358	 43.9800	  6.5062	  10.791	 141.475
 2361	 43.8800	  6.5212	  10.806	 141.655
 2364	 43.7800	  6.5362	  10.821	 141.835
 2367	 43.6800	  6.5512	  10.836	 142.015
 2370	 43.6000	  6.5662	  10.851	 142.195
 2373	 43.4800	  6.5824	  10.867	 142.375
 2376	 43.4000	  6.5974	  10.882	 142.555
 2379	 43.2800	  6.6124	  10.898	 142.735
 2382	 43.1800	  6.6274	  10.912	 142.915
 2385	 43.1000	  6.6424	  10.927	 143.095
 2388	 43.0000	  6.6574	  10.943	 143.275
 2391	 42.8800	  6.6724	  10.957	 143.455
 2394	 42.7800	  6.6874	  10.972	 143.635
 2397	 42.6800	  6.7024	  10.988	 143.815
 2400	 42.5800	  6.7174	  11.002	 143.995
 2403	 42.4600	  6.7324	  11.017	 144.175
 2406	 42.3600	  6.7474	  11.032	 144.355
 2409	 42.2600	  6.7624	  11.047	 144.535
 2412	 42.1400	  6.7787	  11.064	 144.715
 2415	 42.0400	  6.7937	  11.079	 144.895
 2418	 41.9400	  6.8087	  11.094	 145.075
 2421	 41.8200	  6.8237	  11.109	 145.255
 2424	 41.7200	  6.8387	  11.124	 145.435
 2427	 41.6000	  6.8524	  11.137	 145.615
 2430	 41.5000	  6.8674	  11.153	 145.795
 2433	 41.4000	  6.8824	  11.167	 145.975
 2436	 41.2800	  6.8974	  11.182	 146.155
 2439	 41.1600	  6.9124	  11.197	 146.335
 2442	 41.0400	  6.9274	  11.212	 146.515
 2445	 40.9400	  6.9424	  11.227	 146.695
 2448	 40.8200	  6.9574	  11.242	 146.875
 2451	 40.7000	  6.9724	  11.257	 147.055
 2454	 40.5800	  6.9874	  11.273	 147.235
 2457	 40.4800	  7.0024	  11.287	 147.415
 2460	 40.3400	  7.0174	  11.302	 147.595
 2463	 40.2400	  7.0337	  11.319	 147.775
 2466	 40.1200	  7.0487	  11.334	 147.955
 2469	 40.0000	  7.0637	  11.349	 148.135
 2472	 39.8800	  7.0787	  11.364	 148.315
 2475	 39.7600	  7.0937	  11.379	 148.495
 2478	 39.6400	  7.1087	  11.394	 148.675
 2481	 39.5000	  7.1237	  11.409	 148.855
 2484	 39.3800	  7.1387	  11.424	 149.035
 2487	 39.2600	  7.1537	  11.439	 149.215
 2490	 39.1400	  7.1687	  11.454	 149.395
 2493	 39.0000	  7.1837	  11.469	 149.575
 2496	 38.8800	  7.1987	  11.484	 149.755
 2499	 38.7600	  7.2137	  11.499	 149.935
 2502	 38.6200	  7.2287	  11.514	 150.115
 2505	 38.4800	  7.2437	  11.529	 150.295
 2508	 38.3600	  7.2587	  11.544	 150.475
 2511	 38.2200	  7.2737	  11.559	 150.655
 2514	 38.0800	  7.2887	  11.574	 150.835
 2517	 37.9600	  7.3049	  11.590	 151.015
 2520	 37.8200	  7.3199	  11.605	 151.195
 2523	 37.6800	  7.3337	  11.619	 151.375
 2526	 37.5400	  7.3499	  11.635	 151.555
 2529	 37.4000	  7.3649	  11.650	 151.735
 2532	 37.2600	  7.3799	  11.665	 151.915
 2535	 37.1200	  7.3949	  11.680	 152.095
 2538	 36.9800	  7.4099	  11.695	 152.275
 2541	 36.8400	  7.4249	  11.710	 152.455
 2544	 36.6800	  7.4399	  11.725	 152.635
 2547	 36.5400	  7.4549	  11.740	 152.815
 2550	 36.3800	  7.4699	  11.755	 152.995
 2553	 36.2400	  7.4849	  11.770	 153.175
 2556	 36.1000	  7.5012	  11.786	 153.355
 2559	 35.9400	  7.5149	  11.800	 153.535
 2562	 35.8000	  7.5312	  11.816	 153.715
 2565	 35.6400	  7.5449	  11.830	 153.895
 2568	 35.4800	  7.5612	  11.846	 154.075
 2571	 35.3200	  7.5762	  11.861	 154.255
 2574	 35.1800	  7.5912	  11.876	 154.435
 2577	 35.0200	  7.6062	  11.891	 154.615
 2580	 34.8600	  7.6212	  11.906	 154.795
 2583	 34.7000	  7.6362	  11.921	 154.975
 2586	 34.5200	  7.6512	  11.936	 155.155
 2589	 34.3600	  7.6662	  11.951	 155.335
 2592	 34.2000	  7.6812	  11.966	 155.515
 2595	  0.8200	  7.7099	  11.995	 155.695
 2598	  0.0000	  7.7112	  11.996	 155.875
 2601	  0.0000	  7.7262	  12.011	 156.055
 2604	  0.0200	  7.7412	  12.026	 156.235
 2607	  0.0200	  7.7562	  12.041	 156.415
 2610	  0.0200	  7.7712	  12.056	 156.595
 2613	  0.0200	  7.7862	  12.071	 156.775
 2616	  0.0200	  7.8012	  12.086	 156.955
 2619	  0.0200	  7.8162	  12.101	 157.135
 2622	  0.0200	  7.8312	  12.116	 157.315
 2625	  0.0200	  7.8462	  12.131	 157.495
 2628	  0.0200	  7.8599	  12.145	 157.675
 2631	  0.0200	  7.8749	  12.160	 157.855
 2634	  0.0000	  7.8899	  12.175	 158.035
 2637	  0.0200	  7.9049	  12.190	 158.215
 2640	  0.0000	  7.9199	  12.205	 158.395
 2643	  0.0000	  7.9362	  12.221	 158.575
 2646	  0.0000	  7.9499	  12.235	 158.755
ControlMode:	0
Rate:	  5.0000
(null)
4
step	1
0
5.000000
0.000000
1
1
0.500000
2
step	2
1
5.000000
0.000000
1
1
2.000000
3
step	3
5
2.000000
0.000000
1
0
30
4
step	4
8
0.000000
0.000000
0
0
0.000000
0
2