File: Experimento 4/Resultados Experimento 4-20210423/arquivos txt/Polimero_Amarelo-50mm_min.txt
0
Diameter:	   3.00
   6.00
Area:	  18.0000
Gauge:	  25.00
2009-1-20
Polimero
amostra 20mm/min
DataNumber:	3772
Order	Load(kN)	Defor(mm)	Stroke(mm)	Time(s)
    0	  0.0000	  0.0000	   0.000	   0.000
    4	  0.0200	  0.1713	   0.171	   0.235
    8	  0.1200	  0.3713	   0.371	   0.475
   12	  0.2000	  0.5712	   0.571	   0.715
   16	  0.2600	  0.7713	   0.771	   0.955
   20	  0.3000	  0.9712	   0.971	   1.195
   24	  0.3400	  1.1712	   1.171	   1.435
   28	  0.3800	  1.3712	   1.371	   1.675
   32	  0.4000	  1.5725	   1.572	   1.915
   36	  0.4200	  1.7737	   1.774	   2.155
   40	  0.4400	  1.9737	   1.974	   2.395
   44	  0.4400	  2.1737	   2.174	   2.635
   48	  0.4400	  2.3737	   2.374	   2.875
   52	  0.4600	  2.5750	   2.575	   3.115
   56	  0.4600	  2.7762	   2.776	   3.355
   60	  0.4600	  2.9762	   2.976	   3.595
   64	  0.4600	  3.1762	   3.176	   3.835
   68	  0.4600	  3.3775	   3.377	   4.075
   72	  0.4600	  3.5787	   3.579	   4.315
   76	  0.4400	  3.7787	   3.779	   4.555
   80	  0.4400	  3.9800	   3.980	   4.795
   84	  0.4400	  4.1813	   4.181	   5.035
   88	  0.4400	  4.3825	   4.382	   5.275
   92	  0.4400	  4.5850	   4.585	   5.515
   96	  0.4200	  4.7850	   4.785	   5.755
  100	  0.4200	  4.9875	   4.987	   5.995
  104	  0.4200	  5.1875	   5.188	   6.235
  108	  0.4200	  5.3888	   5.389	   6.475
  112	  0.4000	  5.5900	   5.590	   6.715
  116	  0.4000	  5.7900	   5.790	   6.955
  120	  0.4000	  5.9913	   5.991	   7.195
  124	  0.4000	  6.1925	   6.192	   7.435
  128	  0.4000	  6.3925	   6.392	   7.675
  132	  0.3800	  6.5900	   6.590	   7.915
  136	  0.3800	  6.7912	   6.791	   8.155
  140	  0.3800	  6.9937	   6.994	   8.395
  144	  0.3800	  7.1937	   7.194	   8.635
  148	  0.3800	  7.3925	   7.392	   8.875
  152	  0.3600	  7.5938	   7.594	   9.115
  156	  0.3600	  7.7950	   7.795	   9.355
  160	  0.3600	  7.9950	   7.995	   9.595
  164	  0.3600	  8.1962	   8.196	   9.835
  168	  0.3400	  8.3975	   8.398	  10.075
  172	  0.3400	  8.5988	   8.599	  10.315
  176	  0.3400	  8.7987	   8.799	  10.555
  180	  0.3400	  9.0000	   9.000	  10.795
  184	  0.3400	  9.2013	   9.201	  11.035
  188	  0.3400	  9.4025	   9.403	  11.275
  192	  0.3200	  9.6025	   9.602	  11.515
  196	  0.3200	  9.8025	   9.802	  11.755
  200	  0.3200	 10.0037	  10.004	  11.995
  204	  0.3200	 10.2025	  10.202	  12.235
  208	  0.3000	 10.4037	  10.404	  12.475
  212	  0.3000	 10.6025	  10.602	  12.715
  216	  0.3000	 10.8038	  10.804	  12.955
  220	  0.2800	 11.0050	  11.005	  13.195
  224	  0.2800	 11.2050	  11.205	  13.435
  228	  0.2800	 11.4050	  11.405	  13.675
  232	  0.2600	 11.6050	  11.605	  13.915
  236	  0.2600	 11.8062	  11.806	  14.155
  240	  0.2400	 12.0075	  12.007	  14.395
  244	  0.2400	 12.2075	  12.207	  14.635
  248	  0.2400	 12.4075	  12.407	  14.875
  252	  0.2200	 12.6087	  12.609	  15.115
  256	  0.2200	 12.8100	  12.810	  15.355
  260	  0.2200	 13.0100	  13.010	  15.595
  264	  0.2200	 13.2125	  13.212	  15.835
  268	  0.2200	 13.4137	  13.414	  16.075
  272	  0.2200	 13.6137	  13.614	  16.315
  276	  0.2200	 13.8150	  13.815	  16.555
  280	  0.2200	 14.0150	  14.015	  16.795
  284	  0.2200	 14.2162	  14.216	  17.035
  288	  0.2200	 14.4175	  14.417	  17.275
  292	  0.2200	 14.6175	  14.617	  17.515
  296	  0.2200	 14.8175	  14.818	  17.755
  300	  0.2200	 15.0187	  15.019	  17.995
  304	  0.2200	 15.2200	  15.220	  18.235
  308	  0.2200	 15.4200	  15.420	  18.475
  312	  0.2200	 15.6200	  15.620	  18.715
  316	  0.2200	 15.8212	  15.821	  18.955
  320	  0.2200	 16.0187	  16.019	  19.195
  324	  0.2200	 16.2200	  16.220	  19.435
  328	  0.2200	 16.4200	  16.420	  19.675
  332	  0.2200	 16.6213	  16.621	  19.915
  336	  0.2200	 16.8225	  16.823	  20.155
  340	  0.2200	 17.0238	  17.024	  20.395
  344	  0.2200	 17.2237	  17.224	  20.635
  348	  0.2200	 17.4263	  17.426	  20.875
  352	  0.2200	 17.6262	  17.626	  21.115
  356	  0.2200	 17.8263	  17.826	  21.355
  360	  0.2200	 18.0262	  18.026	  21.595
  364	  0.2200	 18.2275	  18.227	  21.835
  368	  0.2200	 18.4275	  18.427	  22.075
  372	  0.2200	 18.6287	  18.629	  22.315
  376	  0.2200	 18.8287	  18.829	  22.555
  380	  0.2200	 19.0287	  19.029	  22.795
  384	  0.2200	 19.2288	  19.229	  23.035
  388	  0.2200	 19.4300	  19.430	  23.275
  392	  0.2200	 19.6300	  19.630	  23.515
  396	  0.2200	 19.8300	  19.830	  23.755
  400	  0.2200	 20.0300	  20.030	  23.995
  404	  0.2200	 20.2312	  20.231	  24.235
  408	  0.2200	 20.4325	  20.432	  24.475
  412	  0.2200	 20.6325	  20.632	  24.715
  416	  0.2200	 20.8325	  20.833	  24.955
  420	  0.2200	 21.0337	  21.034	  25.195
  424	  0.2200	 21.2337	  21.234	  25.435
  428	  0.2200	 21.4350	  21.435	  25.675
  432	  0.2200	 21.6362	  21.636	  25.915
  436	  0.2200	 21.8375	  21.837	  26.155
  440	  0.2200	 22.0375	  22.038	  26.395
  444	  0.2200	 22.2375	  22.237	  26.635
  448	  0.2200	 22.4387	  22.439	  26.875
  452	  0.2200	 22.6388	  22.639	  27.115
  456	  0.2200	 22.8400	  22.840	  27.355
  460	  0.2200	 23.0400	  23.040	  27.595
  464	  0.2200	 23.2400	  23.240	  27.835
  468	  0.2200	 23.4412	  23.441	  28.075
  472	  0.2200	 23.6425	  23.642	  28.315
  476	  0.2200	 23.8425	  23.842	  28.555
  480	  0.2200	 24.0437	  24.044	  28.795
  484	  0.2200	 24.2437	  24.244	  29.035
  488	  0.2200	 24.4450	  24.445	  29.275
  492	  0.2200	 24.6475	  24.647	  29.515
  496	  0.2200	 24.8475	  24.847	  29.755
  500	  0.2200	 25.0475	  25.047	  29.995
  504	  0.2200	 25.2487	  25.249	  30.235
  508	  0.2200	 25.4487	  25.449	  30.475
  512	  0.2200	 25.6500	  25.650	  30.715
  516	  0.2200	 25.8512	  25.851	  30.955
  520	  0.2200	 26.0525	  26.052	  31.195
  524	  0.2200	 26.2537	  26.254	  31.435
  528	  0.2200	 26.4537	  26.454	  31.675
  532	  0.2200	 26.6550	  26.655	  31.915
  536	  0.2200	 26.8538	  26.854	  32.155
  540	  0.2200	 27.0537	  27.054	  32.395
  544	  0.2200	 27.2537	  27.254	  32.635
  548	  0.2200	 27.4537	  27.454	  32.875
  552	  0.2200	 27.6550	  27.655	  33.115
  556	  0.2200	 27.8550	  27.855	  33.355
  560	  0.2200	 28.0550	  28.055	  33.595
  564	  0.2200	 28.2550	  28.255	  33.835
  568	  0.2200	 28.4562	  28.456	  34.075
  572	  0.2200	 28.6562	  28.656	  34.315
  576	  0.2200	 28.8575	  28.858	  34.555
  580	  0.2200	 29.0575	  29.057	  34.795
  584	  0.2200	 29.2587	  29.259	  35.035
  588	  0.2200	 29.4587	  29.459	  35.275
  592	  0.2200	 29.6600	  29.660	  35.515
  596	  0.2200	 29.8612	  29.861	  35.755
  600	  0.2200	 30.0612	  30.061	  35.995
  604	  0.2200	 30.2612	  30.261	  36.235
  608	  0.2200	 30.4625	  30.462	  36.475
  612	  0.2200	 30.6625	  30.662	  36.715
  616	  0.2200	 30.8637	  30.864	  36.955
  620	  0.2200	 31.0637	  31.064	  37.195
  624	  0.2200	 31.2638	  31.264	  37.435
  628	  0.2200	 31.4637	  31.464	  37.675
  632	  0.2200	 31.6650	  31.665	  37.915
  636	  0.2200	 31.8650	  31.865	  38.155
  640	  0.2200	 32.0662	  32.066	  38.395
  644	  0.2200	 32.2663	  32.266	  38.635
  648	  0.2200	 32.4675	  32.467	  38.875
  652	  0.2200	 32.6675	  32.667	  39.115
  656	  0.2200	 32.8687	  32.869	  39.355
  660	  0.2200	 33.0687	  33.069	  39.595
  664	  0.2200	 33.2700	  33.270	  39.835
  668	  0.2200	 33.4712	  33.471	  40.075
  672	  0.2200	 33.6725	  33.673	  40.315
  676	  0.2200	 33.8725	  33.872	  40.555
  680	  0.2200	 34.0737	  34.074	  40.795
  684	  0.2200	 34.2738	  34.274	  41.035
  688	  0.2200	 34.4750	  34.475	  41.275
  692	  0.2200	 34.6763	  34.676	  41.515
  696	  0.2200	 34.8762	  34.876	  41.755
  700	  0.2200	 35.0775	  35.077	  41.995
  704	  0.2200	 35.2775	  35.278	  42.235
  708	  0.2200	 35.4775	  35.478	  42.475
  712	  0.2200	 35.6775	  35.677	  42.715
  716	  0.2200	 35.8775	  35.877	  42.955
  720	  0.2200	 36.0788	  36.079	  43.195
  724	  0.2200	 36.2800	  36.280	  43.435
  728	  0.2200	 36.4800	  36.480	  43.675
  732	  0.2200	 36.6787	  36.679	  43.915
  736	  0.2200	 36.8800	  36.880	  44.155
  740	  0.2200	 37.0812	  37.081	  44.395
  744	  0.2200	 37.2812	  37.281	  44.635
  748	  0.2200	 37.4813	  37.481	  44.875
  752	  0.2200	 37.6825	  37.682	  45.115
  756	  0.2200	 37.8825	  37.882	  45.355
  760	  0.2200	 38.0837	  38.084	  45.595
  764	  0.2200	 38.2850	  38.285	  45.835
  768	  0.2200	 38.4850	  38.485	  46.075
  772	  0.2200	 38.6862	  38.686	  46.315
  776	  0.2200	 38.8862	  38.886	  46.555
  780	  0.2200	 39.0875	  39.087	  46.795
  784	  0.2200	 39.2875	  39.287	  47.035
  788	  0.2200	 39.4888	  39.489	  47.275
  792	  0.2200	 39.6887	  39.689	  47.515
  796	  0.2200	 39.8875	  39.888	  47.755
  800	  0.2200	 40.0887	  40.089	  47.995
  804	  0.2200	 40.2900	  40.290	  48.235
  808	  0.2200	 40.4900	  40.490	  48.475
  812	  0.2200	 40.6900	  40.690	  48.715
  816	  0.2200	 40.8900	  40.890	  48.955
  820	  0.2200	 41.0912	  41.091	  49.195
  824	  0.2200	 41.2925	  41.292	  49.435
  828	  0.2200	 41.4925	  41.493	  49.675
  832	  0.2200	 41.6937	  41.694	  49.915
  836	  0.2200	 41.8937	  41.894	  50.155
  840	  0.2200	 42.0950	  42.095	  50.395
  844	  0.2200	 42.2962	  42.296	  50.635
  848	  0.2200	 42.4963	  42.496	  50.875
  852	  0.2200	 42.6975	  42.697	  51.115
  856	  0.2200	 42.8988	  42.899	  51.355
  860	  0.2200	 43.0987	  43.099	  51.595
  864	  0.2200	 43.3000	  43.300	  51.835
  868	  0.2200	 43.5012	  43.501	  52.075
  872	  0.2200	 43.7012	  43.701	  52.315
  876	  0.2200	 43.9012	  43.901	  52.555
  880	  0.2200	 44.1025	  44.103	  52.795
  884	  0.2200	 44.3037	  44.304	  53.035
  888	  0.2200	 44.5050	  44.505	  53.275
  892	  0.2200	 44.7062	  44.706	  53.515
  896	  0.2200	 44.9062	  44.906	  53.755
  900	  0.2200	 45.1087	  45.109	  53.995
  904	  0.2200	 45.3075	  45.307	  54.235
  908	  0.2200	 45.5087	  45.509	  54.475
  912	  0.2200	 45.7087	  45.709	  54.715
  916	  0.2200	 45.9112	  45.911	  54.955
  920	  0.2200	 46.1112	  46.111	  55.195
  924	  0.2200	 46.3125	  46.312	  55.435
  928	  0.2200	 46.5112	  46.511	  55.675
  932	  0.2200	 46.7125	  46.712	  55.915
  936	  0.2200	 46.9137	  46.914	  56.155
  940	  0.2200	 47.1138	  47.114	  56.395
  944	  0.2200	 47.3137	  47.314	  56.635
  948	  0.2200	 47.5150	  47.515	  56.875
  952	  0.2200	 47.7162	  47.716	  57.115
  956	  0.2200	 47.9162	  47.916	  57.355
  960	  0.2200	 48.1162	  48.116	  57.595
  964	  0.2200	 48.3162	  48.316	  57.835
  968	  0.2200	 48.5175	  48.517	  58.075
  972	  0.2200	 48.7175	  48.717	  58.315
  976	  0.2200	 48.9175	  48.917	  58.555
  980	  0.2200	 49.1187	  49.119	  58.795
  984	  0.2200	 49.3187	  49.319	  59.035
  988	  0.2200	 49.5200	  49.520	  59.275
  992	  0.2200	 49.7162	  49.716	  59.515
  996	  0.2200	 49.9162	  49.916	  59.755
 1000	  0.2200	 50.1175	  50.118	  59.995
 1004	  0.2200	 50.3187	  50.319	  60.235
 1008	  0.2200	 50.5187	  50.519	  60.475
 1012	  0.2200	 50.7188	  50.719	  60.715
 1016	  0.2200	 50.9200	  50.920	  60.955
 1020	  0.2200	 51.1200	  51.120	  61.195
 1024	  0.2200	 51.3212	  51.321	  61.435
 1028	  0.2200	 51.5225	  51.522	  61.675
 1032	  0.2200	 51.7225	  51.722	  61.915
 1036	  0.2200	 51.9237	  51.924	  62.155
 1040	  0.2200	 52.1237	  52.124	  62.395
 1044	  0.2200	 52.3237	  52.324	  62.635
 1048	  0.2200	 52.5238	  52.524	  62.875
 1052	  0.2200	 52.7250	  52.725	  63.115
 1056	  0.2200	 52.9263	  52.926	  63.355
 1060	  0.2200	 53.1262	  53.126	  63.595
 1064	  0.2200	 53.3262	  53.326	  63.835
 1068	  0.2200	 53.5275	  53.528	  64.075
 1072	  0.2200	 53.7287	  53.729	  64.315
 1076	  0.2200	 53.9287	  53.929	  64.555
 1080	  0.2200	 54.1300	  54.130	  64.795
 1084	  0.2200	 54.3312	  54.331	  65.035
 1088	  0.2200	 54.5325	  54.532	  65.275
 1092	  0.2200	 54.7337	  54.734	  65.515
 1096	  0.2200	 54.9338	  54.934	  65.755
 1100	  0.2200	 55.1350	  55.135	  65.995
 1104	  0.2200	 55.3363	  55.336	  66.235
 1108	  0.2200	 55.5362	  55.536	  66.475
 1112	  0.2200	 55.7362	  55.736	  66.715
 1116	  0.2200	 55.9375	  55.938	  66.955
 1120	  0.2200	 56.1387	  56.139	  67.195
 1124	  0.2200	 56.3375	  56.337	  67.435
 1128	  0.2200	 56.5375	  56.537	  67.675
 1132	  0.2200	 56.7388	  56.739	  67.915
 1136	  0.2200	 56.9400	  56.940	  68.155
 1140	  0.2200	 57.1413	  57.141	  68.395
 1144	  0.2200	 57.3387	  57.339	  68.635
 1148	  0.2200	 57.5400	  57.540	  68.875
 1152	  0.2200	 57.7412	  57.741	  69.115
 1156	  0.2200	 57.9412	  57.941	  69.355
 1160	  0.2200	 58.1412	  58.141	  69.595
 1164	  0.2200	 58.3425	  58.342	  69.835
 1168	  0.2200	 58.5437	  58.544	  70.075
 1172	  0.2200	 58.7450	  58.745	  70.315
 1176	  0.2200	 58.9450	  58.945	  70.555
 1180	  0.2200	 59.1450	  59.145	  70.795
 1184	  0.2200	 59.3450	  59.345	  71.035
 1188	  0.2200	 59.5462	  59.546	  71.275
 1192	  0.2200	 59.7463	  59.746	  71.515
 1196	  0.2200	 59.9462	  59.946	  71.755
 1200	  0.2200	 60.1475	  60.147	  71.995
 1204	  0.2200	 60.3475	  60.347	  72.235
 1208	  0.2200	 60.5487	  60.549	  72.475
 1212	  0.2200	 60.7475	  60.747	  72.715
 1216	  0.2200	 60.9487	  60.949	  72.955
 1220	  0.2200	 61.1488	  61.149	  73.195
 1224	  0.2200	 61.3500	  61.350	  73.435
 1228	  0.2200	 61.5500	  61.550	  73.675
 1232	  0.2200	 61.7512	  61.751	  73.915
 1236	  0.2200	 61.9512	  61.951	  74.155
 1240	  0.2200	 62.1537	  62.154	  74.395
 1244	  0.2200	 62.3525	  62.352	  74.635
 1248	  0.2200	 62.5537	  62.554	  74.875
 1252	  0.2200	 62.7550	  62.755	  75.115
 1256	  0.2200	 62.9562	  62.956	  75.355
 1260	  0.2200	 63.1562	  63.156	  75.595
 1264	  0.2200	 63.3575	  63.357	  75.835
 1268	  0.2200	 63.5575	  63.557	  76.075
 1272	  0.2200	 63.7587	  63.759	  76.315
 1276	  0.2200	 63.9587	  63.959	  76.555
 1280	  0.2200	 64.1600	  64.160	  76.795
 1284	  0.2200	 64.3613	  64.361	  77.035
 1288	  0.2200	 64.5625	  64.562	  77.275
 1292	  0.2200	 64.7625	  64.762	  77.515
 1296	  0.2200	 64.9637	  64.964	  77.755
 1300	  0.2200	 65.1637	  65.164	  77.995
 1304	  0.2200	 65.3650	  65.365	  78.235
 1308	  0.2200	 65.5638	  65.564	  78.475
 1312	  0.2200	 65.7637	  65.764	  78.715
 1316	  0.2200	 65.9650	  65.965	  78.955
 1320	  0.2200	 66.1663	  66.166	  79.195
 1324	  0.2200	 66.3675	  66.368	  79.435
 1328	  0.2200	 66.5675	  66.567	  79.675
 1332	  0.2200	 66.7687	  66.769	  79.915
 1336	  0.2200	 66.9700	  66.970	  80.155
 1340	  0.2200	 67.1700	  67.170	  80.395
 1344	  0.2200	 67.3700	  67.370	  80.635
 1348	  0.2200	 67.5700	  67.570	  80.875
 1352	  0.2400	 67.7712	  67.771	  81.115
 1356	  0.2200	 67.9712	  67.971	  81.355
 1360	  0.2400	 68.1712	  68.171	  81.595
 1364	  0.2200	 68.3725	  68.372	  81.835
 1368	  0.2400	 68.5725	  68.573	  82.075
 1372	  0.2400	 68.7738	  68.774	  82.315
 1376	  0.2200	 68.9725	  68.972	  82.555
 1380	  0.2200	 69.1738	  69.174	  82.795
 1384	  0.2400	 69.3737	  69.374	  83.035
 1388	  0.2200	 69.5750	  69.575	  83.275
 1392	  0.2400	 69.7750	  69.775	  83.515
 1396	  0.2400	 69.9750	  69.975	  83.755
 1400	  0.2200	 70.1750	  70.175	  83.995
 1404	  0.2400	 70.3763	  70.376	  84.235
 1408	  0.2400	 70.5775	  70.577	  84.475
 1412	  0.2400	 70.7775	  70.777	  84.715
 1416	  0.2400	 70.9788	  70.979	  84.955
 1420	  0.2400	 71.1787	  71.179	  85.195
 1424	  0.2400	 71.3800	  71.380	  85.435
 1428	  0.2400	 71.5800	  71.580	  85.675
 1432	  0.2400	 71.7812	  71.781	  85.915
 1436	  0.2400	 71.9812	  71.981	  86.155
 1440	  0.2400	 72.1825	  72.182	  86.395
 1444	  0.2400	 72.3825	  72.382	  86.635
 1448	  0.2400	 72.5825	  72.582	  86.875
 1452	  0.2400	 72.7837	  72.784	  87.115
 1456	  0.2400	 72.9837	  72.984	  87.355
 1460	  0.2400	 73.1837	  73.184	  87.595
 1464	  0.2400	 73.3838	  73.384	  87.835
 1468	  0.2400	 73.5850	  73.585	  88.075
 1472	  0.2400	 73.7862	  73.786	  88.315
 1476	  0.2400	 73.9863	  73.986	  88.555
 1480	  0.2400	 74.1875	  74.188	  88.795
 1484	  0.2400	 74.3887	  74.389	  89.035
 1488	  0.2400	 74.5887	  74.589	  89.275
 1492	  0.2400	 74.7913	  74.791	  89.515
 1496	  0.2400	 74.9912	  74.991	  89.755
 1500	  0.2400	 75.1925	  75.192	  89.995
 1504	  0.2400	 75.3925	  75.393	  90.235
 1508	  0.2400	 75.5950	  75.595	  90.475
 1512	  0.2400	 75.7950	  75.795	  90.715
 1516	  0.2400	 75.9938	  75.994	  90.955
 1520	  0.2400	 76.1950	  76.195	  91.195
 1524	  0.2400	 76.3962	  76.396	  91.435
 1528	  0.2400	 76.5962	  76.596	  91.675
 1532	  0.2400	 76.7962	  76.796	  91.915
 1536	  0.2400	 76.9962	  76.996	  92.155
 1540	  0.2400	 77.1975	  77.197	  92.395
 1544	  0.2400	 77.3975	  77.397	  92.635
 1548	  0.2400	 77.5975	  77.597	  92.875
 1552	  0.2400	 77.7988	  77.799	  93.115
 1556	  0.2400	 78.0000	  78.000	  93.355
 1560	  0.2400	 78.1987	  78.199	  93.595
 1564	  0.2400	 78.4000	  78.400	  93.835
 1568	  0.2400	 78.6000	  78.600	  94.075
 1572	  0.2400	 78.8012	  78.801	  94.315
 1576	  0.2400	 79.0013	  79.001	  94.555
 1580	  0.2400	 79.2025	  79.202	  94.795
 1584	  0.2400	 79.4025	  79.402	  95.035
 1588	  0.2400	 79.6000	  79.600	  95.275
 1592	  0.2400	 79.8012	  79.801	  95.515
 1596	  0.2400	 80.0013	  80.001	  95.755
 1600	  0.2400	 80.2012	  80.201	  95.995
 1604	  0.2400	 80.4012	  80.401	  96.235
 1608	  0.2400	 80.6025	  80.603	  96.475
 1612	  0.2400	 80.8025	  80.802	  96.715
 1616	  0.2400	 81.0025	  81.002	  96.955
 1620	  0.2400	 81.2038	  81.204	  97.195
 1624	  0.2400	 81.4037	  81.404	  97.435
 1628	  0.2400	 81.6037	  81.604	  97.675
 1632	  0.2400	 81.8050	  81.805	  97.915
 1636	  0.2400	 82.0062	  82.006	  98.155
 1640	  0.2400	 82.2075	  82.207	  98.395
 1644	  0.2400	 82.4075	  82.408	  98.635
 1648	  0.2400	 82.6087	  82.609	  98.875
 1652	  0.2400	 82.8100	  82.810	  99.115
 1656	  0.2400	 83.0112	  83.011	  99.355
 1660	  0.2400	 83.2125	  83.213	  99.595
 1664	  0.2400	 83.4137	  83.414	  99.835
 1668	  0.2400	 83.6137	  83.614	 100.075
 1672	  0.2400	 83.8162	  83.816	 100.315
 1676	  0.2400	 84.0163	  84.016	 100.555
 1680	  0.2400	 84.2175	  84.217	 100.795
 1684	  0.2400	 84.4187	  84.419	 101.035
 1688	  0.2400	 84.6188	  84.619	 101.275
 1692	  0.2400	 84.8200	  84.820	 101.515
 1696	  0.2400	 85.0200	  85.020	 101.755
 1700	  0.2400	 85.2200	  85.220	 101.995
 1704	  0.2400	 85.4212	  85.421	 102.235
 1708	  0.2400	 85.6225	  85.622	 102.475
 1712	  0.2400	 85.8225	  85.822	 102.715
 1716	  0.2400	 86.0238	  86.024	 102.955
 1720	  0.2400	 86.2225	  86.222	 103.195
 1724	  0.2400	 86.4238	  86.424	 103.435
 1728	  0.2400	 86.6237	  86.624	 103.675
 1732	  0.2400	 86.8250	  86.825	 103.915
 1736	  0.2400	 87.0250	  87.025	 104.155
 1740	  0.2400	 87.2262	  87.226	 104.395
 1744	  0.2400	 87.4262	  87.426	 104.635
 1748	  0.2400	 87.6275	  87.627	 104.875
 1752	  0.2400	 87.8275	  87.827	 105.115
 1756	  0.2400	 88.0287	  88.029	 105.355
 1760	  0.2400	 88.2287	  88.229	 105.595
 1764	  0.2400	 88.4300	  88.430	 105.835
 1768	  0.2400	 88.6300	  88.630	 106.075
 1772	  0.2400	 88.8300	  88.830	 106.315
 1776	  0.2400	 89.0300	  89.030	 106.555
 1780	  0.2400	 89.2312	  89.231	 106.795
 1784	  0.2400	 89.4313	  89.431	 107.035
 1788	  0.2400	 89.6312	  89.631	 107.275
 1792	  0.2400	 89.8325	  89.832	 107.515
 1796	  0.2400	 90.0325	  90.033	 107.755
 1800	  0.2400	 90.2325	  90.232	 107.995
 1804	  0.2400	 90.4337	  90.434	 108.235
 1808	  0.2400	 90.6350	  90.635	 108.475
 1812	  0.2400	 90.8350	  90.835	 108.715
 1816	  0.2400	 91.0350	  91.035	 108.955
 1820	  0.2400	 91.2362	  91.236	 109.195
 1824	  0.2400	 91.4375	  91.438	 109.435
 1828	  0.2400	 91.6375	  91.637	 109.675
 1832	  0.2400	 91.8375	  91.838	 109.915
 1836	  0.2400	 92.0387	  92.039	 110.155
 1840	  0.2400	 92.2400	  92.240	 110.395
 1844	  0.2400	 92.4400	  92.440	 110.635
 1848	  0.2400	 92.6413	  92.641	 110.875
 1852	  0.2400	 92.8412	  92.841	 111.115
 1856	  0.2400	 93.0425	  93.042	 111.355
 1860	  0.2400	 93.2425	  93.243	 111.595
 1864	  0.2400	 93.4437	  93.444	 111.835
 1868	  0.2400	 93.6437	  93.644	 112.075
 1872	  0.2400	 93.8450	  93.845	 112.315
 1876	  0.2400	 94.0450	  94.045	 112.555
 1880	  0.2400	 94.2462	  94.246	 112.795
 1884	  0.2400	 94.4475	  94.447	 113.035
 1888	  0.2400	 94.6488	  94.649	 113.275
 1892	  0.2400	 94.8500	  94.850	 113.515
 1896	  0.2400	 95.0500	  95.050	 113.755
 1900	  0.2400	 95.2500	  95.250	 113.995
 1904	  0.2400	 95.4512	  95.451	 114.235
 1908	  0.2400	 95.6525	  95.652	 114.475
 1912	  0.2400	 95.8525	  95.853	 114.715
 1916	  0.2400	 96.0525	  96.052	 114.955
 1920	  0.2400	 96.2537	  96.254	 115.195
 1924	  0.2400	 96.4550	  96.455	 115.435
 1928	  0.2400	 96.6550	  96.655	 115.675
 1932	  0.2400	 96.8537	  96.854	 115.915
 1936	  0.2400	 97.0550	  97.055	 116.155
 1940	  0.2400	 97.2562	  97.256	 116.395
 1944	  0.2400	 97.4562	  97.456	 116.635
 1948	  0.2400	 97.6550	  97.655	 116.875
 1952	  0.2400	 97.8562	  97.856	 117.115
 1956	  0.2400	 98.0563	  98.056	 117.355
 1960	  0.2400	 98.2575	  98.257	 117.595
 1964	  0.2400	 98.4575	  98.457	 117.835
 1968	  0.2400	 98.6587	  98.659	 118.075
 1972	  0.2400	 98.8600	  98.860	 118.315
 1976	  0.2400	 99.0587	  99.059	 118.555
 1980	  0.2400	 99.2600	  99.260	 118.795
 1984	  0.2400	 99.4600	  99.460	 119.035
 1988	  0.2400	 99.6612	  99.661	 119.275
 1992	  0.2400	 99.8625	  99.862	 119.515
 1996	  0.2400	100.0625	 100.062	 119.755
 2000	  0.2400	100.2625	 100.262	 119.995
 2004	  0.2400	100.4637	 100.464	 120.235
 2008	  0.2400	100.6650	 100.665	 120.475
 2012	  0.2400	100.8637	 100.864	 120.715
 2016	  0.2400	101.0650	 101.065	 120.955
 2020	  0.2400	101.2663	 101.266	 121.195
 2024	  0.2400	101.4675	 101.467	 121.435
 2028	  0.2400	101.6662	 101.666	 121.675
 2032	  0.2400	101.8662	 101.866	 121.915
 2036	  0.2400	102.0675	 102.067	 122.155
 2040	  0.2400	102.2675	 102.267	 122.395
 2044	  0.2400	102.4675	 102.467	 122.635
 2048	  0.2400	102.6687	 102.669	 122.875
 2052	  0.2400	102.8700	 102.870	 123.115
 2056	  0.2400	103.0713	 103.071	 123.355
 2060	  0.2400	103.2712	 103.271	 123.595
 2064	  0.2400	103.4725	 103.472	 123.835
 2068	  0.2400	103.6737	 103.674	 124.075
 2072	  0.2400	103.8750	 103.875	 124.315
 2076	  0.2400	104.0750	 104.075	 124.555
 2080	  0.2400	104.2762	 104.276	 124.795
 2084	  0.2400	104.4775	 104.478	 125.035
 2088	  0.2400	104.6787	 104.679	 125.275
 2092	  0.2400	104.8800	 104.880	 125.515
 2096	  0.2400	105.0800	 105.080	 125.755
 2100	  0.2400	105.2800	 105.280	 125.995
 2104	  0.2400	105.4812	 105.481	 126.235
 2108	  0.2400	105.6812	 105.681	 126.475
 2112	  0.2400	105.8812	 105.881	 126.715
 2116	  0.2400	106.0800	 106.080	 126.955
 2120	  0.2400	106.2812	 106.281	 127.195
 2124	  0.2400	106.4812	 106.481	 127.435
 2128	  0.2400	106.6812	 106.681	 127.675
 2132	  0.2400	106.8825	 106.882	 127.915
 2136	  0.2400	107.0837	 107.084	 128.155
 2140	  0.2400	107.2850	 107.285	 128.395
 2144	  0.2400	107.4850	 107.485	 128.635
 2148	  0.2400	107.6862	 107.686	 128.875
 2152	  0.2400	107.8862	 107.886	 129.115
 2156	  0.2400	108.0875	 108.087	 129.355
 2160	  0.2400	108.2875	 108.287	 129.595
 2164	  0.2400	108.4875	 108.487	 129.835
 2168	  0.2400	108.6900	 108.690	 130.075
 2172	  0.2400	108.8913	 108.891	 130.315
 2176	  0.2400	109.0912	 109.091	 130.555
 2180	  0.2400	109.2900	 109.290	 130.795
 2184	  0.2400	109.4912	 109.491	 131.035
 2188	  0.2400	109.6925	 109.692	 131.275
 2192	  0.2400	109.8913	 109.891	 131.515
 2196	  0.2400	110.0912	 110.091	 131.755
 2200	  0.2400	110.2912	 110.291	 131.995
 2204	  0.2400	110.4912	 110.491	 132.235
 2208	  0.2400	110.6912	 110.691	 132.475
 2212	  0.2400	110.8925	 110.892	 132.715
 2216	  0.2400	111.0925	 111.092	 132.955
 2220	  0.2400	111.2925	 111.292	 133.195
 2224	  0.2400	111.4937	 111.494	 133.435
 2228	  0.2400	111.6937	 111.694	 133.675
 2232	  0.2400	111.8937	 111.894	 133.915
 2236	  0.2400	112.0950	 112.095	 134.155
 2240	  0.2400	112.2962	 112.296	 134.395
 2244	  0.2400	112.4962	 112.496	 134.635
 2248	  0.2400	112.6975	 112.697	 134.875
 2252	  0.2400	112.8988	 112.899	 135.115
 2256	  0.2400	113.1012	 113.101	 135.355
 2260	  0.2400	113.3012	 113.301	 135.595
 2264	  0.2400	113.5013	 113.501	 135.835
 2268	  0.2400	113.7025	 113.702	 136.075
 2272	  0.2400	113.9037	 113.904	 136.315
 2276	  0.2400	114.1037	 114.104	 136.555
 2280	  0.2400	114.3037	 114.304	 136.795
 2284	  0.2400	114.5050	 114.505	 137.035
 2288	  0.2400	114.7050	 114.705	 137.275
 2292	  0.2400	114.9050	 114.905	 137.515
 2296	  0.2400	115.1062	 115.106	 137.755
 2300	  0.2400	115.3075	 115.307	 137.995
 2304	  0.2400	115.5088	 115.509	 138.235
 2308	  0.2400	115.7100	 115.710	 138.475
 2312	  0.2400	115.9087	 115.909	 138.715
 2316	  0.2400	116.1100	 116.110	 138.955
 2320	  0.2400	116.3112	 116.311	 139.195
 2324	  0.2400	116.5125	 116.512	 139.435
 2328	  0.2400	116.7100	 116.710	 139.675
 2332	  0.2400	116.9112	 116.911	 139.915
 2336	  0.2400	117.1125	 117.112	 140.155
 2340	  0.2400	117.3137	 117.314	 140.395
 2344	  0.2400	117.5137	 117.514	 140.635
 2348	  0.2400	117.7137	 117.714	 140.875
 2352	  0.2400	117.9150	 117.915	 141.115
 2356	  0.2400	118.1162	 118.116	 141.355
 2360	  0.2400	118.3150	 118.315	 141.595
 2364	  0.2400	118.5163	 118.516	 141.835
 2368	  0.2400	118.7162	 118.716	 142.075
 2372	  0.2400	118.9162	 118.916	 142.315
 2376	  0.2400	119.1162	 119.116	 142.555
 2380	  0.2400	119.3162	 119.316	 142.795
 2384	  0.2400	119.5175	 119.517	 143.035
 2388	  0.2400	119.7188	 119.719	 143.275
 2392	  0.2400	119.9200	 119.920	 143.515
 2396	  0.2400	120.1200	 120.120	 143.755
 2400	  0.2400	120.3200	 120.320	 143.995
 2404	  0.2400	120.5225	 120.522	 144.235
 2408	  0.2400	120.7237	 120.724	 144.475
 2412	  0.2400	120.9237	 120.924	 144.715
 2416	  0.2400	121.1237	 121.124	 144.955
 2420	  0.2400	121.3250	 121.325	 145.195
 2424	  0.2400	121.5275	 121.527	 145.435
 2428	  0.2400	121.7262	 121.726	 145.675
 2432	  0.2400	121.9275	 121.927	 145.915
 2436	  0.2400	122.1287	 122.129	 146.155
 2440	  0.2400	122.3300	 122.330	 146.395
 2444	  0.2400	122.5300	 122.530	 146.635
 2448	  0.2400	122.7300	 122.730	 146.875
 2452	  0.2400	122.9300	 122.930	 147.115
 2456	  0.2400	123.1300	 123.130	 147.355
 2460	  0.2400	123.3312	 123.331	 147.595
 2464	  0.2400	123.5325	 123.532	 147.835
 2468	  0.2400	123.7337	 123.734	 148.075
 2472	  0.2400	123.9350	 123.935	 148.315
 2476	  0.2400	124.1350	 124.135	 148.555
 2480	  0.2400	124.3363	 124.336	 148.795
 2484	  0.2400	124.5387	 124.539	 149.035
 2488	  0.2400	124.7400	 124.740	 149.275
 2492	  0.2400	124.9400	 124.940	 149.515
 2496	  0.2400	125.1413	 125.141	 149.755
 2500	  0.2400	125.3425	 125.342	 149.995
 2504	  0.2400	125.5437	 125.544	 150.235
 2508	  0.2400	125.7437	 125.744	 150.475
 2512	  0.2400	125.9425	 125.942	 150.715
 2516	  0.2400	126.1437	 126.144	 150.955
 2520	  0.2400	126.3438	 126.344	 151.195
 2524	  0.2400	126.5450	 126.545	 151.435
 2528	  0.2400	126.7450	 126.745	 151.675
 2532	  0.2400	126.9437	 126.944	 151.915
 2536	  0.2400	127.1437	 127.144	 152.155
 2540	  0.2400	127.3438	 127.344	 152.395
 2544	  0.2400	127.5450	 127.545	 152.635
 2548	  0.2400	127.7450	 127.745	 152.875
 2552	  0.2400	127.9463	 127.946	 153.115
 2556	  0.2400	128.1475	 128.147	 153.355
 2560	  0.2400	128.3475	 128.348	 153.595
 2564	  0.2400	128.5488	 128.549	 153.835
 2568	  0.2400	128.7500	 128.750	 154.075
 2572	  0.2400	128.9500	 128.950	 154.315
 2576	  0.2400	129.1500	 129.150	 154.555
 2580	  0.2400	129.3512	 129.351	 154.795
 2584	  0.2400	129.5513	 129.551	 155.035
 2588	  0.2400	129.7525	 129.753	 155.275
 2592	  0.2400	129.9525	 129.952	 155.515
 2596	  0.2400	130.1525	 130.152	 155.755
 2600	  0.2400	130.3537	 130.354	 155.995
 2604	  0.2400	130.5537	 130.554	 156.235
 2608	  0.2400	130.7550	 130.755	 156.475
 2612	  0.2400	130.9538	 130.954	 156.715
 2616	  0.2400	131.1537	 131.154	 156.955
 2620	  0.2400	131.3550	 131.355	 157.195
 2624	  0.2400	131.5550	 131.555	 157.435
 2628	  0.2400	131.7550	 131.755	 157.675
 2632	  0.2400	131.9563	 131.956	 157.915
 2636	  0.2400	132.1575	 132.158	 158.155
 2640	  0.2400	132.3587	 132.359	 158.395
 2644	  0.2400	132.5587	 132.559	 158.635
 2648	  0.2400	132.7600	 132.760	 158.875
 2652	  0.2400	132.9612	 132.961	 159.115
 2656	  0.2400	133.1625	 133.162	 159.355
 2660	  0.2400	133.3638	 133.364	 159.595
 2664	  0.2400	133.5638	 133.564	 159.835
 2668	  0.2400	133.7650	 133.765	 160.075
 2672	  0.2600	133.9662	 133.966	 160.315
 2676	  0.2400	134.1662	 134.166	 160.555
 2680	  0.2400	134.3675	 134.367	 160.795
 2684	  0.2400	134.5675	 134.567	 161.035
 2688	  0.2400	134.7688	 134.769	 161.275
 2692	  0.2400	134.9700	 134.970	 161.515
 2696	  0.2400	135.1700	 135.170	 161.755
 2700	  0.2400	135.3700	 135.370	 161.995
 2704	  0.2400	135.5675	 135.567	 162.235
 2708	  0.2400	135.7688	 135.769	 162.475
 2712	  0.2400	135.9688	 135.969	 162.715
 2716	  0.2400	136.1700	 136.170	 162.955
 2720	  0.2400	136.3712	 136.371	 163.195
 2724	  0.2400	136.5725	 136.572	 163.435
 2728	  0.2400	136.7725	 136.772	 163.675
 2732	  0.2400	136.9737	 136.974	 163.915
 2736	  0.2400	137.1750	 137.175	 164.155
 2740	  0.2400	137.3750	 137.375	 164.395
 2744	  0.2400	137.5750	 137.575	 164.635
 2748	  0.2400	137.7762	 137.776	 164.875
 2752	  0.2600	137.9762	 137.976	 165.115
 2756	  0.2400	138.1775	 138.177	 165.355
 2760	  0.2400	138.3788	 138.379	 165.595
 2764	  0.2600	138.5788	 138.579	 165.835
 2768	  0.2400	138.7800	 138.780	 166.075
 2772	  0.2400	138.9800	 138.980	 166.315
 2776	  0.2400	139.1800	 139.180	 166.555
 2780	  0.2600	139.3800	 139.380	 166.795
 2784	  0.2400	139.5800	 139.580	 167.035
 2788	  0.2600	139.7800	 139.780	 167.275
 2792	  0.2600	139.9812	 139.981	 167.515
 2796	  0.2600	140.1800	 140.180	 167.755
 2800	  0.2600	140.3812	 140.381	 167.995
 2804	  0.2600	140.5813	 140.581	 168.235
 2808	  0.2400	140.7825	 140.783	 168.475
 2812	  0.2600	140.9825	 140.982	 168.715
 2816	  0.2600	141.1837	 141.184	 168.955
 2820	  0.2600	141.3850	 141.385	 169.195
 2824	  0.2600	141.5862	 141.586	 169.435
 2828	  0.2600	141.7862	 141.786	 169.675
 2832	  0.2600	141.9875	 141.988	 169.915
 2836	  0.2600	142.1888	 142.189	 170.155
 2840	  0.2600	142.3900	 142.390	 170.395
 2844	  0.2600	142.5900	 142.590	 170.635
 2848	  0.2600	142.7912	 142.791	 170.875
 2852	  0.2600	142.9912	 142.991	 171.115
 2856	  0.2600	143.1925	 143.192	 171.355
 2860	  0.2600	143.3913	 143.391	 171.595
 2864	  0.2600	143.5925	 143.592	 171.835
 2868	  0.2600	143.7937	 143.794	 172.075
 2872	  0.2600	143.9937	 143.994	 172.315
 2876	  0.2600	144.1937	 144.194	 172.555
 2880	  0.2600	144.3950	 144.395	 172.795
 2884	  0.2600	144.5963	 144.596	 173.035
 2888	  0.2600	144.7962	 144.796	 173.275
 2892	  0.2600	144.9975	 144.997	 173.515
 2896	  0.2600	145.1975	 145.197	 173.755
 2900	  0.2600	145.3987	 145.399	 173.995
 2904	  0.2600	145.6000	 145.600	 174.235
 2908	  0.2600	145.8013	 145.801	 174.475
 2912	  0.2600	146.0013	 146.001	 174.715
 2916	  0.2600	146.2025	 146.202	 174.955
 2920	  0.2600	146.4037	 146.404	 175.195
 2924	  0.2600	146.6037	 146.604	 175.435
 2928	  0.2600	146.8037	 146.804	 175.675
 2932	  0.2600	147.0038	 147.004	 175.915
 2936	  0.2600	147.2038	 147.204	 176.155
 2940	  0.2600	147.4050	 147.405	 176.395
 2944	  0.2600	147.6050	 147.605	 176.635
 2948	  0.2600	147.8050	 147.805	 176.875
 2952	  0.2600	148.0050	 148.005	 177.115
 2956	  0.2600	148.2050	 148.205	 177.355
 2960	  0.2600	148.4050	 148.405	 177.595
 2964	  0.2600	148.6050	 148.605	 177.835
 2968	  0.2600	148.8062	 148.806	 178.075
 2972	  0.2600	149.0062	 149.006	 178.315
 2976	  0.2600	149.2063	 149.206	 178.555
 2980	  0.2600	149.4075	 149.408	 178.795
 2984	  0.2600	149.6087	 149.609	 179.035
 2988	  0.2600	149.8087	 149.809	 179.275
 2992	  0.2600	150.0087	 150.009	 179.515
 2996	  0.2600	150.2087	 150.209	 179.755
 3000	  0.2600	150.4100	 150.410	 179.995
 3004	  0.2600	150.6113	 150.611	 180.235
 3008	  0.2600	150.8112	 150.811	 180.475
 3012	  0.2600	151.0112	 151.011	 180.715
 3016	  0.2600	151.2125	 151.212	 180.955
 3020	  0.2600	151.4137	 151.414	 181.195
 3024	  0.2600	151.6137	 151.614	 181.435
 3028	  0.2600	151.8138	 151.814	 181.675
 3032	  0.2600	152.0137	 152.014	 181.915
 3036	  0.2600	152.2150	 152.215	 182.155
 3040	  0.2400	152.4088	 152.409	 182.395
 3044	  0.2400	152.6100	 152.610	 182.635
 3048	  0.2400	152.8100	 152.810	 182.875
 3052	  0.2400	153.0112	 153.011	 183.115
 3056	  0.2400	153.2125	 153.212	 183.355
 3060	  0.2400	153.4137	 153.414	 183.595
 3064	  0.2400	153.6150	 153.615	 183.835
 3068	  0.2400	153.8163	 153.816	 184.075
 3072	  0.2400	154.0175	 154.018	 184.315
 3076	  0.2400	154.2175	 154.217	 184.555
 3080	  0.2400	154.4187	 154.419	 184.795
 3084	  0.2400	154.6212	 154.621	 185.035
 3088	  0.2400	154.8212	 154.821	 185.275
 3092	  0.2400	155.0225	 155.022	 185.515
 3096	  0.2400	155.2225	 155.223	 185.755
 3100	  0.2400	155.4225	 155.423	 185.995
 3104	  0.2200	155.6237	 155.624	 186.235
 3108	  0.2200	155.8250	 155.825	 186.475
 3112	  0.2200	156.0250	 156.025	 186.715
 3116	  0.2200	156.2225	 156.223	 186.955
 3120	  0.2200	156.4238	 156.424	 187.195
 3124	  0.2200	156.6237	 156.624	 187.435
 3128	  0.2200	156.8250	 156.825	 187.675
 3132	  0.2200	157.0250	 157.025	 187.915
 3136	  0.2200	157.2262	 157.226	 188.155
 3140	  0.2200	157.4275	 157.427	 188.395
 3144	  0.2000	157.6263	 157.626	 188.635
 3148	  0.2000	157.8275	 157.827	 188.875
 3152	  0.1800	158.0287	 158.029	 189.115
 3156	  0.1800	158.2300	 158.230	 189.355
 3160	  0.1800	158.4312	 158.431	 189.595
 3164	  0.1800	158.6325	 158.632	 189.835
 3168	  0.1800	158.8337	 158.834	 190.075
 3172	  0.1800	159.0350	 159.035	 190.315
 3176	  0.1800	159.2350	 159.235	 190.555
 3180	  0.1600	159.4337	 159.434	 190.795
 3184	  0.1600	159.6350	 159.635	 191.035
 3188	  0.1600	159.8362	 159.836	 191.275
 3192	  0.1600	160.0362	 160.036	 191.515
 3196	  0.1600	160.2363	 160.236	 191.755
 3200	  0.1600	160.4362	 160.436	 191.995
 3204	  0.1600	160.6375	 160.637	 192.235
 3208	  0.1400	160.8375	 160.837	 192.475
 3212	  0.1400	161.0375	 161.037	 192.715
 3216	  0.1400	161.2387	 161.239	 192.955
 3220	  0.1400	161.4400	 161.440	 193.195
 3224	  0.1400	161.6413	 161.641	 193.435
 3228	  0.1200	161.8400	 161.840	 193.675
 3232	  0.1400	162.0425	 162.042	 193.915
 3236	  0.1200	162.2437	 162.244	 194.155
 3240	  0.1200	162.4450	 162.445	 194.395
 3244	  0.1200	162.6450	 162.645	 194.635
 3248	  0.1200	162.8463	 162.846	 194.875
 3252	  0.1200	163.0475	 163.048	 195.115
 3256	  0.1200	163.2487	 163.249	 195.355
 3260	  0.1200	163.4487	 163.449	 195.595
 3264	  0.1200	163.6500	 163.650	 195.835
 3268	  0.1200	163.8500	 163.850	 196.075
 3272	  0.1200	164.0512	 164.051	 196.315
 3276	  0.1200	164.2513	 164.251	 196.555
 3280	  0.1000	164.4512	 164.451	 196.795
 3284	  0.1000	164.6512	 164.651	 197.035
 3288	  0.1000	164.8525	 164.852	 197.275
 3292	  0.1000	165.0525	 165.052	 197.515
 3296	  0.1000	165.2525	 165.253	 197.755
 3300	  0.1000	165.4538	 165.454	 197.995
 3304	  0.1000	165.6550	 165.655	 198.235
 3308	  0.1000	165.8550	 165.855	 198.475
 3312	  0.1000	166.0562	 166.056	 198.715
 3316	  0.1000	166.2575	 166.257	 198.955
 3320	  0.1000	166.4575	 166.457	 199.195
 3324	  0.1000	166.6588	 166.659	 199.435
 3328	  0.1000	166.8587	 166.859	 199.675
 3332	  0.1000	167.0600	 167.060	 199.915
 3336	  0.1000	167.2612	 167.261	 200.155
 3340	  0.0800	167.4612	 167.461	 200.395
 3344	  0.1000	167.6612	 167.661	 200.635
 3348	  0.1000	167.8613	 167.861	 200.875
 3352	  0.1000	168.0612	 168.061	 201.115
 3356	  0.0800	168.2625	 168.262	 201.355
 3360	  0.0800	168.4625	 168.462	 201.595
 3364	  0.0800	168.6612	 168.661	 201.835
 3368	  0.0800	168.8625	 168.863	 202.075
 3372	  0.0800	169.0625	 169.062	 202.315
 3376	  0.0800	169.2637	 169.264	 202.555
 3380	  0.0800	169.4625	 169.462	 202.795
 3384	  0.0800	169.6637	 169.664	 203.035
 3388	  0.0800	169.8650	 169.865	 203.275
 3392	  0.0800	170.0650	 170.065	 203.515
 3396	  0.0800	170.2663	 170.266	 203.755
 3400	  0.0800	170.4675	 170.467	 203.995
 3404	  0.0800	170.6675	 170.667	 204.235
 3408	  0.0800	170.8687	 170.869	 204.475
 3412	  0.0800	171.0687	 171.069	 204.715
 3416	  0.0800	171.2700	 171.270	 204.955
 3420	  0.0800	171.4713	 171.471	 205.195
 3424	  0.0800	171.6725	 171.673	 205.435
 3428	  0.0800	171.8675	 171.867	 205.675
 3432	  0.0800	172.0675	 172.067	 205.915
 3436	  0.0800	172.2688	 172.269	 206.155
 3440	  0.0800	172.4688	 172.469	 206.395
 3444	  0.0800	172.6687	 172.669	 206.635
 3448	  0.0800	172.8687	 172.869	 206.875
 3452	  0.0800	173.0700	 173.070	 207.115
 3456	  0.0800	173.2700	 173.270	 207.355
 3460	  0.0800	173.4713	 173.471	 207.595
 3464	  0.0800	173.6712	 173.671	 207.835
 3468	  0.0800	173.8725	 173.872	 208.075
 3472	  0.0800	174.0737	 174.074	 208.315
 3476	  0.0800	174.2737	 174.274	 208.555
 3480	  0.0800	174.4750	 174.475	 208.795
 3484	  0.0800	174.6762	 174.676	 209.035
 3488	  0.0800	174.8763	 174.876	 209.275
 3492	  0.0600	175.0788	 175.079	 209.515
 3496	  0.0800	175.2787	 175.279	 209.755
 3500	  0.0600	175.4800	 175.480	 209.995
 3504	  0.0800	175.6812	 175.681	 210.235
 3508	  0.0600	175.8825	 175.882	 210.475
 3512	  0.0600	176.0825	 176.082	 210.715
 3516	  0.0800	176.2825	 176.283	 210.955
 3520	  0.0600	176.4825	 176.482	 211.195
 3524	  0.0600	176.6825	 176.682	 211.435
 3528	  0.0600	176.8825	 176.882	 211.675
 3532	  0.0600	177.0837	 177.084	 211.915
 3536	  0.0600	177.2825	 177.283	 212.155
 3540	  0.0600	177.4825	 177.482	 212.395
 3544	  0.0600	177.6837	 177.684	 212.635
 3548	  0.0600	177.8837	 177.884	 212.875
 3552	  0.0600	178.0837	 178.084	 213.115
 3556	  0.0600	178.2850	 178.285	 213.355
 3560	  0.0600	178.4850	 178.485	 213.595
 3564	  0.0600	178.6862	 178.686	 213.835
 3568	  0.0600	178.8875	 178.887	 214.075
 3572	  0.0600	179.0887	 179.089	 214.315
 3576	  0.0600	179.2887	 179.289	 214.555
 3580	  0.0600	179.4887	 179.489	 214.795
 3584	  0.0600	179.6900	 179.690	 215.035
 3588	  0.0600	179.8913	 179.891	 215.275
 3592	  0.0600	180.0925	 180.092	 215.515
 3596	  0.0600	180.2912	 180.291	 215.755
 3600	  0.0600	180.4925	 180.492	 215.995
 3604	  0.0600	180.6925	 180.692	 216.235
 3608	  0.0600	180.8938	 180.894	 216.475
 3612	  0.0600	181.0938	 181.094	 216.715
 3616	  0.0600	181.2937	 181.294	 216.955
 3620	  0.0600	181.4937	 181.494	 217.195
 3624	  0.0600	181.6950	 181.695	 217.435
 3628	  0.0600	181.8950	 181.895	 217.675
 3632	  0.0400	182.0963	 182.096	 217.915
 3636	  0.0400	182.2962	 182.296	 218.155
 3640	  0.0600	182.4975	 182.497	 218.395
 3644	  0.0600	182.6975	 182.697	 218.635
 3648	  0.0600	182.8987	 182.899	 218.875
 3652	  0.0400	183.1000	 183.100	 219.115
 3656	  0.0600	183.3012	 183.301	 219.355
 3660	  0.0600	183.5013	 183.501	 219.595
 3664	  0.0400	183.7025	 183.702	 219.835
 3668	  0.0400	183.9037	 183.904	 220.075
 3672	  0.0400	184.1050	 184.105	 220.315
 3676	  0.0400	184.3050	 184.305	 220.555
 3680	  0.0600	184.5062	 184.506	 220.795
 3684	  0.0600	184.7075	 184.707	 221.035
 3688	  0.0600	184.9075	 184.908	 221.275
 3692	  0.0600	185.1087	 185.109	 221.515
 3696	  0.0600	185.3087	 185.309	 221.755
 3700	  0.0600	185.5075	 185.507	 221.995
 3704	  0.0600	185.7075	 185.707	 222.235
 3708	  0.0600	185.9100	 185.910	 222.475
 3712	  0.0600	186.1100	 186.110	 222.715
 3716	  0.0600	186.3100	 186.310	 222.955
 3720	  0.0600	186.5112	 186.511	 223.195
 3724	  0.0600	186.7100	 186.710	 223.435
 3728	  0.0600	186.9100	 186.910	 223.675
 3732	  0.0600	187.1113	 187.111	 223.915
 3736	  0.0600	187.3125	 187.312	 224.155
 3740	  0.0600	187.5125	 187.512	 224.395
 3744	  0.0600	187.7125	 187.712	 224.635
 3748	  0.0600	187.9137	 187.914	 224.875
 3752	  0.0600	188.1150	 188.115	 225.115
 3756	  0.0600	188.3162	 188.316	 225.355
 3760	  0.0600	188.5150	 188.515	 225.595
 3764	  0.0600	188.7162	 188.716	 225.835
 3768	  0.0600	188.9162	 188.916	 226.075
2009-1-20
Polimero
amostra 20mm/min
25
18.00
1
3
???
???
???
???
25.56
???
???
???
???
???
0.46
???
1
6
6